ID,timestamp,phase,block,trial,ID_item,img,training,est,true,rt_ms,response_duration_ms,time_stim_shown,first_input,input_values,input_times,strategy,knowledge,quality,cheated,age,gender,undisturbed,undisturbed_specific,technical_problems,technical_problems_specific,domain
qza2yw7qkddd,2025-04-24,testing,NA,0,Cookies,Bild68.png,0,46,58,4518.099999952363,116,1174047.7,1177068,"4, 6","1177068, 1177543",Just the knowledge I have about those foods contents.,5,yes,no,32,female,yes,NA,no,NA,Food
qza2yw7qkddd,2025-04-24,testing,NA,2,Potatoes,Bild12.png,0,90,19,3760.800000095274,74,1184741.6,1187161,"9, 0","1187161, 1187416",Just the knowledge I have about those foods contents.,5,yes,no,32,female,yes,NA,no,NA,Food
qza2yw7qkddd,2025-04-24,testing,NA,3,Dextrose,Bild80.png,0,56,91,4619.5,97,1188514.5,1191824,"5, 6","1191824, 1192059",Just the knowledge I have about those foods contents.,5,yes,no,32,female,yes,NA,no,NA,Food
qza2yw7qkddd,2025-04-24,testing,NA,4,Chicken,Bild53.png,1,2,2,2903.100000047591,81,1193145.1,1195066,2,1195066,Just the knowledge I have about those foods contents.,5,yes,no,32,female,yes,NA,no,NA,Food
qza2yw7qkddd,2025-04-24,testing,NA,6,Gummy bears,Bild59.png,1,77,77,3246.600000000093,111,1200299.4,1202534,"7, 7","1202534, 1202695",Just the knowledge I have about those foods contents.,5,yes,no,32,female,yes,NA,no,NA,Food
qza2yw7qkddd,2025-04-24,testing,NA,7,Chickpeas,Bild72.png,1,16,16,6027.799999904586,101,1203555.8,1207446,"1, 6","1207446, 1208668",Just the knowledge I have about those foods contents.,5,yes,no,32,female,yes,NA,no,NA,Food
qza2yw7qkddd,2025-04-24,testing,NA,8,Dried ham,Bild47.png,0,4,1,3535.300000095274,80,1209594.1,1212120,4,1212120,Just the knowledge I have about those foods contents.,5,yes,no,32,female,yes,NA,no,NA,Food
qza2yw7qkddd,2025-04-24,testing,NA,9,Croissant,Bild8.png,0,80,47,8968.700000047684,93,1213142,1215320,"8, 0","1215320, 1215606",Just the knowledge I have about those foods contents.,5,yes,no,32,female,yes,NA,no,NA,Food
qza2yw7qkddd,2025-04-24,testing,NA,10,Apricot,Bild37.png,0,45,9,3664.143999952357,104,1222112.156,1224563,"4, 5","1224563, 1224798",Just the knowledge I have about those foods contents.,5,yes,no,32,female,yes,NA,no,NA,Food
qza2yw7qkddd,2025-04-24,testing,NA,11,Eggplant,Bild78.png,0,4,3,8099.199999999953,98,1225784.8,1228504,"4, 5, NA","1228504, 1228727, 1232344",Just the knowledge I have about those foods contents.,5,yes,no,32,female,yes,NA,no,NA,Food
qza2yw7qkddd,2025-04-24,testing,NA,12,Rice cake,Bild79.png,1,77,77,3770.199999999953,81,1233896.8,1236480,"7, 7","1236480, 1236681",Just the knowledge I have about those foods contents.,5,yes,no,32,female,yes,NA,no,NA,Food
qza2yw7qkddd,2025-04-24,testing,NA,13,Salmon,Bild51.png,0,1,0,4368.200000095414,81,1237669.7,1241046,1,1241046,Just the knowledge I have about those foods contents.,5,yes,no,32,female,yes,NA,no,NA,Food
qza2yw7qkddd,2025-04-24,testing,NA,14,Chips,Bild63.png,0,77,51,3668.400000095367,95,1242050.5,1243962,"7, 7","1243962, 1244182",Just the knowledge I have about those foods contents.,5,yes,no,32,female,yes,NA,no,NA,Food
qza2yw7qkddd,2025-04-24,testing,NA,15,Cucumber,Bild13.png,0,3,2,3310.600000000093,98,1245723.4,1248019,3,1248019,Just the knowledge I have about those foods contents.,5,yes,no,32,female,yes,NA,no,NA,Food
qza2yw7qkddd,2025-04-24,testing,NA,16,Corn,Bild16.png,1,11,11,4320.099999952363,95,1249038.2,1252316,"1, 1","1252316, 1252532",Just the knowledge I have about those foods contents.,5,yes,no,32,female,yes,NA,no,NA,Food
qza2yw7qkddd,2025-04-24,testing,NA,17,Pork,Bild52.png,0,34,0,5410.869999904651,89,1253360.73,1257644,"3, 4","1257644, 1257939",Just the knowledge I have about those foods contents.,5,yes,no,32,female,yes,NA,no,NA,Food
qza2yw7qkddd,2025-04-24,testing,NA,18,Chocolate cake,Bild66.png,1,50,50,2969.347999999998,72,1258774.652,1260311,"5, 0","1260311, 1260717",Just the knowledge I have about those foods contents.,5,yes,no,32,female,yes,NA,no,NA,Food
qza2yw7qkddd,2025-04-24,testing,NA,19,Tuna (canned),Bild49.png,0,4,0,3078.270000000019,106,1261747.73,1263839,4,1263839,Just the knowledge I have about those foods contents.,5,yes,no,32,female,yes,NA,no,NA,Food
qza2yw7qkddd,2025-04-24,testing,NA,20,Mozzarella,Bild44.png,0,65,1,6047,75,1264837.5,1267729,"6, 5","1267729, 1268285",Just the knowledge I have about those foods contents.,5,yes,no,32,female,yes,NA,no,NA,Food
qza2yw7qkddd,2025-04-24,testing,NA,21,Strawberry,Bild34.png,0,1,6,3867.099999952363,103,1270893.7,1273281,1,1273281,Just the knowledge I have about those foods contents.,5,yes,no,32,female,yes,NA,no,NA,Food
qza2yw7qkddd,2025-04-24,testing,NA,22,Mango,Bild32.png,0,23,13,2786.600000047591,122,1274765.1,1276349,"2, 3","1276349, 1276574",Just the knowledge I have about those foods contents.,5,yes,no,32,female,yes,NA,no,NA,Food
qza2yw7qkddd,2025-04-24,testing,NA,23,Oat flakes,Bild5.png,1,60,60,4760.700000047684,96,1277563.5,1280924,"6, 0","1280924, 1281320",Just the knowledge I have about those foods contents.,5,yes,no,32,female,yes,NA,no,NA,Food
qza2yw7qkddd,2025-04-24,testing,NA,24,Lentils,Bild24.png,0,34,25,2969.299999952316,97,1282327.5,1284169,"3, 4","1284169, 1284401",Just the knowledge I have about those foods contents.,5,yes,no,32,female,yes,NA,no,NA,Food
qza2yw7qkddd,2025-04-24,testing,NA,25,Cherry jam,Bild55.png,0,23,55,3099.299999904586,106,1285300.8,1287200,"2, 3","1287200, 1287410",Just the knowledge I have about those foods contents.,5,yes,no,32,female,yes,NA,no,NA,Food
qza2yw7qkddd,2025-04-24,testing,NA,26,Peanuts,Bild69.png,0,56,11,3888.600000095321,112,1288407.3,1291064,"5, 6","1291064, 1291317",Just the knowledge I have about those foods contents.,5,yes,no,32,female,yes,NA,no,NA,Food
qza2yw7qkddd,2025-04-24,testing,NA,27,Bread roll,Bild4.png,0,45,44,17064.899999999907,87,1292305.1,1308036,"4, 5","1308036, 1308271",Just the knowledge I have about those foods contents.,5,yes,no,32,female,yes,NA,no,NA,Food
qza2yw7qkddd,2025-04-24,testing,NA,28,Yogurt,Bild39.png,0,67,6,3169.499999904539,122,1309378.6,1311210,"6, 7","1311210, 1311434",Just the knowledge I have about those foods contents.,5,yes,no,32,female,yes,NA,no,NA,Food
qza2yw7qkddd,2025-04-24,testing,NA,29,Raspberry,Bild35.png,0,4,5,2566.002000047592,72,1312552.198,1314111,4,1314111,Just the knowledge I have about those foods contents.,5,yes,no,32,female,yes,NA,no,NA,Food
qza2yw7qkddd,2025-04-24,testing,NA,30,Curd cheese,Bild40.png,0,34,4,4457.300000047777,112,1315125.4,1316881,"3, 4","1316881, 1317122",Just the knowledge I have about those foods contents.,5,yes,no,32,female,yes,NA,no,NA,Food
qza2yw7qkddd,2025-04-24,testing,NA,31,Bread,Bild7.png,0,43,43,4886.5,110,1319589.5,1323039,"4, 3","1323039, 1323468",Just the knowledge I have about those foods contents.,5,yes,no,32,female,yes,NA,no,NA,Food
qza2yw7qkddd,2025-04-24,testing,NA,32,Fried egg,Bild17.png,0,23,2,3837.099999952363,110,1324486.7,1327118,"2, 3","1327118, 1327318",Just the knowledge I have about those foods contents.,5,yes,no,32,female,yes,NA,no,NA,Food
qza2yw7qkddd,2025-04-24,testing,NA,33,Whipped cream,Bild71.png,0,79,3,3761.867999904556,126,1328326.232,1330569,"7, 9","1330569, 1330893",Just the knowledge I have about those foods contents.,5,yes,no,32,female,yes,NA,no,NA,Food
qza2yw7qkddd,2025-04-24,testing,NA,34,Spaghetti,Bild1.png,1,28,28,6473.5,73,1332099,1335927,"2, 8","1335927, 1336412",Just the knowledge I have about those foods contents.,5,yes,no,32,female,yes,NA,no,NA,Food
qza2yw7qkddd,2025-04-24,testing,NA,35,Banana,Bild26.png,0,67,20,2945.499999904539,106,1338578.6,1340340,"6, 7","1340340, 1340574",Just the knowledge I have about those foods contents.,5,yes,no,32,female,yes,NA,no,NA,Food
qza2yw7qkddd,2025-04-24,testing,NA,36,Butter,Bild42.png,0,77,1,2689.400000047637,117,1341535.3,1342991,"7, 7","1342991, 1343162",Just the knowledge I have about those foods contents.,5,yes,no,32,female,yes,NA,no,NA,Food
qza2yw7qkddd,2025-04-24,testing,NA,37,Orange,Bild30.png,0,3,8,2922.899999952409,92,1344225.4,1345997,3,1345997,Just the knowledge I have about those foods contents.,5,yes,no,32,female,yes,NA,no,NA,Food
qza2yw7qkddd,2025-04-24,testing,NA,38,Carrots,Bild15.png,0,23,7,2863.100000047591,95,1347157.1,1348538,"2, 3","1348538, 1348774",Just the knowledge I have about those foods contents.,5,yes,no,32,female,yes,NA,no,NA,Food
qza2yw7qkddd,2025-04-24,testing,NA,39,Cream cheese,Bild45.png,0,23,3,3097.833999904571,112,1350022.266,1351924,"2, 3","1351924, 1352130",Just the knowledge I have about those foods contents.,5,yes,no,32,female,yes,NA,no,NA,Food
qza2yw7qkddd,2025-04-24,testing,NA,40,Cauliflower,Bild21.png,0,56,2,2992.800000047777,94,1353120.4,1354773,"5, 6","1354773, 1355051",Just the knowledge I have about those foods contents.,5,yes,no,32,female,yes,NA,no,NA,Food
qza2yw7qkddd,2025-04-24,testing,NA,41,Walnuts,Bild70.png,1,4,4,4314.300000095274,113,1356118.6,1359235,4,1359235,Just the knowledge I have about those foods contents.,5,yes,no,32,female,yes,NA,no,NA,Food
qza2yw7qkddd,2025-04-24,testing,NA,42,Peanut butter,Bild58.png,0,45,17,3356.702000000048,118,1360433.298,1362606,"4, 5","1362606, 1362798",Just the knowledge I have about those foods contents.,5,yes,no,32,female,yes,NA,no,NA,Food
qza2yw7qkddd,2025-04-24,testing,NA,43,Vienna sausages,Bild48.png,0,32,1,3406.134000047576,111,1363789.566,1365658,"3, 2","1365658, 1366090",Just the knowledge I have about those foods contents.,5,yes,no,32,female,yes,NA,no,NA,Food
qza2yw7qkddd,2025-04-24,testing,NA,44,Pretzel sticks,Bild64.png,0,30,72,4022.299999952316,98,1367204,1369356,"3, 0","1369356, 1370220",Just the knowledge I have about those foods contents.,5,yes,no,32,female,yes,NA,no,NA,Food
qza2yw7qkddd,2025-04-24,testing,NA,45,Peas,Bild23.png,0,45,9,4687.136000095401,103,1371226.764,1374720,"4, 5","1374720, 1374942",Just the knowledge I have about those foods contents.,5,yes,no,32,female,yes,NA,no,NA,Food
qza2yw7qkddd,2025-04-24,testing,NA,46,Mushrooms,Bild22.png,1,1,1,2835.899999952409,106,1375923.9,1377755,1,1377755,Just the knowledge I have about those foods contents.,5,yes,no,32,female,yes,NA,no,NA,Food
qza2yw7qkddd,2025-04-24,testing,NA,47,Gouda cheese,Bild41.png,0,34,0,3285.699999999953,89,1378772.3,1380803,"3, 4","1380803, 1381043",Just the knowledge I have about those foods contents.,5,yes,no,32,female,yes,NA,no,NA,Food
qza2yw7qkddd,2025-04-24,testing,NA,48,Radishes,Bild73.png,0,2,2,3726.699999904726,123,1382070.4,1384079,2,1384079,Just the knowledge I have about those foods contents.,5,yes,no,32,female,yes,NA,no,NA,Food
qza2yw7qkddd,2025-04-24,testing,NA,49,Mandarin,Bild31.png,0,12,10,7160.399999904679,100,1385801.7,1387182,"NA, 1, 2, NA, NA, NA, NA, NA, 1, 2","1387182, 1388512, 1388703, 1389961, 1390470, 1390507, 1390552, 1390587, 1391481, 1391694",Just the knowledge I have about those foods contents.,5,yes,no,32,female,yes,NA,no,NA,Food
qza2yw7qkddd,2025-04-24,testing,NA,50,French fries,Bild76.png,0,45,24,3243.934000047622,122,1392964.266,1394887,"4, 5","1394887, 1395129",Just the knowledge I have about those foods contents.,5,yes,no,32,female,yes,NA,no,NA,Food
qza2yw7qkddd,2025-04-24,testing,NA,51,Ice cream,Bild60.png,0,70,19,4105.270000095479,104,1396212.63,1398322,"7, 0","1398322, 1399276",Just the knowledge I have about those foods contents.,5,yes,no,32,female,yes,NA,no,NA,Food
qza2yw7qkddd,2025-04-24,testing,NA,52,Shrimps,Bild50.png,0,3,3,3670.299999952316,137,1400328.5,1402693,3,1402693,Just the knowledge I have about those foods contents.,5,yes,no,32,female,yes,NA,no,NA,Food
qza2yw7qkddd,2025-04-24,testing,NA,53,Feta,Bild43.png,0,56,1,3901.599999952363,94,1403999.7,1406622,"5, 6","1406622, 1406844",Just the knowledge I have about those foods contents.,5,yes,no,32,female,yes,NA,no,NA,Food
qza2yw7qkddd,2025-04-24,testing,NA,54,Rigatoni,Bild3.png,0,55,34,5340.299999952316,126,1407914,1412308,"5, 5","1412308, 1412495",Just the knowledge I have about those foods contents.,5,yes,no,32,female,yes,NA,no,NA,Food
qza2yw7qkddd,2025-04-24,testing,NA,55,Bulgur,Bild10.png,0,89,24,3151.299999952316,89,1413261,1415089,"8, 9","1415089, 1415330",Just the knowledge I have about those foods contents.,5,yes,no,32,female,yes,NA,no,NA,Food
qza2yw7qkddd,2025-04-24,testing,NA,56,Apple turnover,Bild65.png,1,34,34,6314.5,96,1416417.5,1421425,"3, 4","1421425, 1421619",Just the knowledge I have about those foods contents.,5,yes,no,32,female,yes,NA,no,NA,Food
qza2yw7qkddd,2025-04-24,testing,NA,57,Grapes,Bild38.png,0,2,15,2886.799999904586,112,1422738.8,1424495,2,1424495,Just the knowledge I have about those foods contents.,5,yes,no,32,female,yes,NA,no,NA,Food
qza2yw7qkddd,2025-04-24,testing,NA,58,White toast,Bild9.png,0,34,47,4507.300000000047,96,1425637.2,1428085,"3, 4","1428085, 1428974",Just the knowledge I have about those foods contents.,5,yes,no,32,female,yes,NA,no,NA,Food
qza2yw7qkddd,2025-04-24,testing,NA,59,Chocolate,Bild61.png,0,56,55,3542.199999999953,120,1430151.3,1432212,"5, 6","1432212, 1432584",Just the knowledge I have about those foods contents.,5,yes,no,32,female,yes,NA,no,NA,Food
qza2yw7qkddd,2025-04-24,testing,NA,60,Raspberry jam,Bild56.png,0,4,52,2363.999999904539,120,1433707.6,1434870,4,1434870,Just the knowledge I have about those foods contents.,5,yes,no,32,female,yes,NA,no,NA,Food
qza2yw7qkddd,2025-04-24,testing,NA,61,Pineapple,Bild33.png,0,45,12,3564.800000000047,103,1436081.2,1437486,"4, 5","1437486, 1437711",Just the knowledge I have about those foods contents.,5,yes,no,32,female,yes,NA,no,NA,Food
qza2yw7qkddd,2025-04-24,testing,NA,62,Honey,Bild57.png,0,3,81,3704.300000047777,98,1439655.9,1441963,3,1441963,Just the knowledge I have about those foods contents.,5,yes,no,32,female,yes,NA,no,NA,Food
qza2yw7qkddd,2025-04-24,testing,NA,63,Kinder chocolate bar,Bild77.png,0,34,54,5251.800000047777,115,1443360.4,1446961,"3, 4","1446961, 1447245",Just the knowledge I have about those foods contents.,5,yes,no,32,female,yes,NA,no,NA,Food
qza2yw7qkddd,2025-04-24,testing,NA,64,Salami,Bild46.png,0,2,1,3261.400000047637,111,1448615.8,1450531,2,1450531,Just the knowledge I have about those foods contents.,5,yes,no,32,female,yes,NA,no,NA,Food
qza2yw7qkddd,2025-04-24,testing,NA,65,Vanilla pudding,Bild62.png,0,88,14,5935.637999952305,173,1451880.662,1456274,"8, 8","1456274, 1456453",Just the knowledge I have about those foods contents.,5,yes,no,32,female,yes,NA,no,NA,Food
qza2yw7qkddd,2025-04-24,testing,NA,66,Iceberg lettuce,Bild20.png,0,3,2,4697.144000095315,118,1457819.256,1461313,3,1461313,Just the knowledge I have about those foods contents.,5,yes,no,32,female,yes,NA,no,NA,Food
qza2yw7qkddd,2025-04-24,testing,NA,67,Couscous,Bild6.png,0,78,29,3966.100000000093,72,1462525.9,1465134,"7, 8","1465134, 1465428",Just the knowledge I have about those foods contents.,5,yes,no,32,female,yes,NA,no,NA,Food
qza2yw7qkddd,2025-04-24,testing,NA,68,Tomatoes,Bild19.png,0,2,3,3435.50000004773,98,1466497.2,1468610,2,1468610,Just the knowledge I have about those foods contents.,5,yes,no,32,female,yes,NA,no,NA,Food
qza2yw7qkddd,2025-04-24,testing,NA,69,Watermelon,Bild28.png,0,1,8,3406.800000000047,118,1469945.2,1472258,1,1472258,Just the knowledge I have about those foods contents.,5,yes,no,32,female,yes,NA,no,NA,Food
qza2yw7qkddd,2025-04-24,testing,NA,70,Vegetarian salami,Bild75.png,0,4,9,4309.600000000093,95,1473359.9,1476575,4,1476575,Just the knowledge I have about those foods contents.,5,yes,no,32,female,yes,NA,no,NA,Food
qza2yw7qkddd,2025-04-24,testing,NA,71,Kidney beans,Bild29.png,0,23,13,3295.800000000047,141,1477674.2,1479717,"2, 3","1479717, 1479939",Just the knowledge I have about those foods contents.,5,yes,no,32,female,yes,NA,no,NA,Food
qza2yw7qkddd,2025-04-24,testing,NA,72,Rice,Bild2.png,0,87,28,11192.200000095414,92,1480972.2,1483810,"2, 2, NA, NA, 8, 7","1483810, 1484003, 1487286, 1487418, 1488441, 1488656",Just the knowledge I have about those foods contents.,5,yes,no,32,female,yes,NA,no,NA,Food
qza2yw7qkddd,2025-04-24,testing,NA,73,Beans,Bild25.png,0,45,3,6078.899999999907,90,1492174.1,1497111,"4, 5","1497111, 1497342",Just the knowledge I have about those foods contents.,5,yes,no,32,female,yes,NA,no,NA,Food
qza2yw7qkddd,2025-04-24,testing,NA,75,Bell pepper,Bild14.png,0,4,6,3037.300000000047,105,1504150.7,1506204,4,1506204,Just the knowledge I have about those foods contents.,5,yes,no,32,female,yes,NA,no,NA,Food
qza2yw7qkddd,2025-04-24,testing,NA,76,Pear,Bild36.png,0,34,12,3644.900000047637,119,1507198.8,1509609,"3, 4","1509609, 1509874",Just the knowledge I have about those foods contents.,5,yes,no,32,female,yes,NA,no,NA,Food
qza2yw7qkddd,2025-04-24,testing,NA,77,Broccoli,Bild18.png,0,23,2,3114.300000095274,40,1510855.1,1512376,"2, 3","1512376, 1512617",Just the knowledge I have about those foods contents.,5,yes,no,32,female,yes,NA,no,NA,Food
qza2yw7qkddd,2025-04-24,testing,NA,78,Wrap,Bild11.png,0,45,52,5876.100000047591,106,1513970.1,1518519,"4, 5","1518519, 1518765",Just the knowledge I have about those foods contents.,5,yes,no,32,female,yes,NA,no,NA,Food
qza2yw7qkddd,2025-04-24,testing,NA,79,Cheesecake,Bild67.png,0,77,33,3785.099999904633,113,1519850,1522311,"7, 7","1522311, 1522492",Just the knowledge I have about those foods contents.,5,yes,no,32,female,yes,NA,no,NA,Food
qza2yw7qkddd,2025-04-24,testing,NA,80,Nutella,Bild54.png,1,57,57,5150.100000000093,172,1523647.9,1527256,"5, 7","1527256, 1527509",Just the knowledge I have about those foods contents.,5,yes,no,32,female,yes,NA,no,NA,Food
qza2yw7qkddd,2025-04-24,testing,NA,81,Fish sticks,Bild74.png,0,2,18,4778.700000095414,119,1528803.2,1532528,2,1532528,Just the knowledge I have about those foods contents.,5,yes,no,32,female,yes,NA,no,NA,Food
qza2yw7qkddd,2025-04-24,testing,NA,82,Apple,Bild27.png,0,9,14,5533.50000004773,107,1533592.2,1538103,9,1538103,Just the knowledge I have about those foods contents.,5,yes,no,32,female,yes,NA,no,NA,Food
wdqr0khtrkyu,2025-04-24,testing,NA,0,Bell pepper,Bild14.png,0,2,6,5670.599999999977,100,710636.4,714277,2,714277,"No, just tried very hard to remember more of them on each round.",4,yes,no,55,female,yes,NA,no,NA,Food
wdqr0khtrkyu,2025-04-24,testing,NA,1,Wrap,Bild11.png,0,40,52,4595.099999928498,87,716335.6,719310,"4, 0","719310, 719809","No, just tried very hard to remember more of them on each round.",4,yes,no,55,female,yes,NA,no,NA,Food
wdqr0khtrkyu,2025-04-24,testing,NA,2,Cream cheese,Bild45.png,0,2,3,3487.299999928451,71,720935.4,723195,2,723195,"No, just tried very hard to remember more of them on each round.",4,yes,no,55,female,yes,NA,no,NA,Food
wdqr0khtrkyu,2025-04-24,testing,NA,3,Watermelon,Bild28.png,0,5,8,5755.599999952363,88,724435.7,728938,5,728938,"No, just tried very hard to remember more of them on each round.",4,yes,no,55,female,yes,NA,no,NA,Food
wdqr0khtrkyu,2025-04-24,testing,NA,4,French fries,Bild76.png,0,68,24,4950.799999976181,89,730203.1,732208,"6, 0, NA, 8","732208, 732684, 733718, 734199","No, just tried very hard to remember more of them on each round.",4,yes,no,55,female,yes,NA,no,NA,Food
wdqr0khtrkyu,2025-04-24,testing,NA,5,Broccoli,Bild18.png,0,1,2,2996.799999928451,108,735168.9,736785,1,736785,"No, just tried very hard to remember more of them on each round.",4,yes,no,55,female,yes,NA,no,NA,Food
wdqr0khtrkyu,2025-04-24,testing,NA,6,Radishes,Bild73.png,0,7,2,4024.899999976158,89,738169,739313,"1, NA, 7","739313, 740539, 741116","No, just tried very hard to remember more of them on each round.",4,yes,no,55,female,yes,NA,no,NA,Food
wdqr0khtrkyu,2025-04-24,testing,NA,7,Feta,Bild43.png,0,2,1,3548.999999928521,72,742203.2,744217,2,744217,"No, just tried very hard to remember more of them on each round.",4,yes,no,55,female,yes,NA,no,NA,Food
wdqr0khtrkyu,2025-04-24,testing,NA,8,Vienna sausages,Bild48.png,0,16,1,5152.569999952335,105,745753.23,749099,"1, 6","749099, 749787","No, just tried very hard to remember more of them on each round.",4,yes,no,55,female,yes,NA,no,NA,Food
wdqr0khtrkyu,2025-04-24,testing,NA,9,Honey,Bild57.png,0,77,81,4618.199999904609,89,750918.9,754178,"7, 7","754178, 754322","No, just tried very hard to remember more of them on each round.",4,yes,no,55,female,yes,NA,no,NA,Food
wdqr0khtrkyu,2025-04-24,testing,NA,10,Corn,Bild16.png,1,16,11,3834.699999999953,88,755552.3,757176,"1, 6","757176, 757842","No, just tried very hard to remember more of them on each round.",4,yes,no,55,female,yes,NA,no,NA,Food
wdqr0khtrkyu,2025-04-24,testing,NA,11,Iceberg lettuce,Bild20.png,0,1,2,4602.099999999977,89,759402.9,762964,1,762964,"No, just tried very hard to remember more of them on each round.",4,yes,no,55,female,yes,NA,no,NA,Food
wdqr0khtrkyu,2025-04-24,testing,NA,12,Fish sticks,Bild74.png,0,19,18,5768.599999904633,121,764019,767424,"1, 9","767424, 768090","No, just tried very hard to remember more of them on each round.",4,yes,no,55,female,yes,NA,no,NA,Food
wdqr0khtrkyu,2025-04-24,testing,NA,13,Dried ham,Bild47.png,0,2,1,3920.399999952293,72,769802.4,772585,2,772585,"No, just tried very hard to remember more of them on each round.",4,yes,no,55,female,yes,NA,no,NA,Food
wdqr0khtrkyu,2025-04-24,testing,NA,14,Fried egg,Bild17.png,0,1,2,4580.799999952316,88,773736,776197,1,776197,"No, just tried very hard to remember more of them on each round.",4,yes,no,55,female,yes,NA,no,NA,Food
wdqr0khtrkyu,2025-04-24,testing,NA,15,Eggplant,Bild78.png,0,5,3,3741.499999904656,72,778320.1,780751,5,780751,"No, just tried very hard to remember more of them on each round.",4,yes,no,55,female,yes,NA,no,NA,Food
wdqr0khtrkyu,2025-04-24,testing,NA,16,Cookies,Bild68.png,0,67,58,7100.599999928498,87,782070.1,786390,"6, 7","786390, 787548","No, just tried very hard to remember more of them on each round.",4,yes,no,55,female,yes,NA,no,NA,Food
wdqr0khtrkyu,2025-04-24,testing,NA,17,Rigatoni,Bild3.png,0,30,34,8429.49999995227,89,789185.8,796064,"3, 0","796064, 796142","No, just tried very hard to remember more of them on each round.",4,yes,no,55,female,yes,NA,no,NA,Food
wdqr0khtrkyu,2025-04-24,testing,NA,18,Chocolate cake,Bild66.png,1,50,50,3084.199999999953,51,797619.8,798931,"5, 0","798931, 799418","No, just tried very hard to remember more of them on each round.",4,yes,no,55,female,yes,NA,no,NA,Food
wdqr0khtrkyu,2025-04-24,testing,NA,19,Tuna (canned),Bild49.png,0,2,0,3428.599999952363,84,800719.2,802985,2,802985,"No, just tried very hard to remember more of them on each round.",4,yes,no,55,female,yes,NA,no,NA,Food
wdqr0khtrkyu,2025-04-24,testing,NA,20,Gouda cheese,Bild41.png,0,5,0,4195.69999995234,89,804153.1,806927,5,806927,"No, just tried very hard to remember more of them on each round.",4,yes,no,55,female,yes,NA,no,NA,Food
wdqr0khtrkyu,2025-04-24,testing,NA,21,Pear,Bild36.png,0,9,12,5243.799999904586,89,808352.8,812237,9,812237,"No, just tried very hard to remember more of them on each round.",4,yes,no,55,female,yes,NA,no,NA,Food
wdqr0khtrkyu,2025-04-24,testing,NA,22,Curd cheese,Bild40.png,0,2,4,3237.199999928474,89,813603.5,815295,2,815295,"No, just tried very hard to remember more of them on each round.",4,yes,no,55,female,yes,NA,no,NA,Food
wdqr0khtrkyu,2025-04-24,testing,NA,23,Gummy bears,Bild59.png,1,77,77,2470.69999995234,71,816852.6,818119,"7, 7","818119, 818272","No, just tried very hard to remember more of them on each round.",4,yes,no,55,female,yes,NA,no,NA,Food
wdqr0khtrkyu,2025-04-24,testing,NA,24,Grapes,Bild38.png,0,18,15,4290.5,73,819336,822475,"1, 8","822475, 822623","No, just tried very hard to remember more of them on each round.",4,yes,no,55,female,yes,NA,no,NA,Food
wdqr0khtrkyu,2025-04-24,testing,NA,25,Ice cream,Bild60.png,0,40,19,7174.899999928428,68,823636.3,826336,"2, NA, 4, 0","826336, 828456, 829663, 829807","No, just tried very hard to remember more of them on each round.",4,yes,no,55,female,yes,NA,no,NA,Food
wdqr0khtrkyu,2025-04-24,testing,NA,26,Pork,Bild52.png,0,3,0,3102.300000000047,88,830820.2,832477,3,832477,"No, just tried very hard to remember more of them on each round.",4,yes,no,55,female,yes,NA,no,NA,Food
wdqr0khtrkyu,2025-04-24,testing,NA,27,Couscous,Bild6.png,0,3,29,3700.399999976158,105,833936,836604,3,836604,"No, just tried very hard to remember more of them on each round.",4,yes,no,55,female,yes,NA,no,NA,Food
wdqr0khtrkyu,2025-04-24,testing,NA,28,Croissant,Bild8.png,0,60,47,4825.337999976124,88,837637.062,839851,"6, 0","839851, 841342","No, just tried very hard to remember more of them on each round.",4,yes,no,55,female,yes,NA,no,NA,Food
wdqr0khtrkyu,2025-04-24,testing,NA,29,Mushrooms,Bild22.png,1,1,1,2467.499999976135,88,842469.4,843736,1,843736,"No, just tried very hard to remember more of them on each round.",4,yes,no,55,female,yes,NA,no,NA,Food
wdqr0khtrkyu,2025-04-24,testing,NA,30,Pretzel sticks,Bild64.png,0,34,72,5613.49999995227,72,844952.8,847948,"3, 4","847948, 849342","No, just tried very hard to remember more of them on each round.",4,yes,no,55,female,yes,NA,no,NA,Food
wdqr0khtrkyu,2025-04-24,testing,NA,31,Chickpeas,Bild72.png,1,16,16,6141.099999976112,72,850569.8,854140,"1, 6","854140, 855263","No, just tried very hard to remember more of them on each round.",4,yes,no,55,female,yes,NA,no,NA,Food
wdqr0khtrkyu,2025-04-24,testing,NA,32,Mango,Bild32.png,0,20,13,4595.599999999977,72,856719.9,859458,"2, 0","859458, 859909","No, just tried very hard to remember more of them on each round.",4,yes,no,55,female,yes,NA,no,NA,Food
wdqr0khtrkyu,2025-04-24,testing,NA,33,Walnuts,Bild70.png,1,4,4,3332.999999928521,89,861320.2,862916,4,862916,"No, just tried very hard to remember more of them on each round.",4,yes,no,55,female,yes,NA,no,NA,Food
wdqr0khtrkyu,2025-04-24,testing,NA,34,Lentils,Bild24.png,0,11,25,5938.781999928528,75,864653.918,869171,"1, 1","869171, 869461","No, just tried very hard to remember more of them on each round.",4,yes,no,55,female,yes,NA,no,NA,Food
wdqr0khtrkyu,2025-04-24,testing,NA,35,Salmon,Bild51.png,0,9,0,4061.199999904609,103,870602.9,873507,9,873507,"No, just tried very hard to remember more of them on each round.",4,yes,no,55,female,yes,NA,no,NA,Food
wdqr0khtrkyu,2025-04-24,testing,NA,36,Mozzarella,Bild44.png,0,6,1,3488.599999928498,87,874670.1,877027,6,877027,"No, just tried very hard to remember more of them on each round.",4,yes,no,55,female,yes,NA,no,NA,Food
wdqr0khtrkyu,2025-04-24,testing,NA,37,Chicken,Bild53.png,1,2,2,2578.900000000023,88,878170.6,879396,2,879396,"No, just tried very hard to remember more of them on each round.",4,yes,no,55,female,yes,NA,no,NA,Food
wdqr0khtrkyu,2025-04-24,testing,NA,38,Dextrose,Bild80.png,0,100,91,4189.099999976112,89,880753.8,882951,"1, 0, 0","882951, 883692, 883837","No, just tried very hard to remember more of them on each round.",4,yes,no,55,female,yes,NA,no,NA,Food
wdqr0khtrkyu,2025-04-24,testing,NA,39,Pineapple,Bild33.png,0,77,12,5839.69999995234,89,884953.6,889270,"7, 7","889270, 889554","No, just tried very hard to remember more of them on each round.",4,yes,no,55,female,yes,NA,no,NA,Food
wdqr0khtrkyu,2025-04-24,testing,NA,40,Nutella,Bild54.png,1,54,57,2732.5,87,890803,892216,"5, 4","892216, 892429","No, just tried very hard to remember more of them on each round.",4,yes,no,55,female,yes,NA,no,NA,Food
wdqr0khtrkyu,2025-04-24,testing,NA,41,Cauliflower,Bild21.png,0,1,2,2976.437999952352,88,893537.362,895174,1,895174,"No, just tried very hard to remember more of them on each round.",4,yes,no,55,female,yes,NA,no,NA,Food
wdqr0khtrkyu,2025-04-24,testing,NA,42,Chips,Bild63.png,0,80,51,4433.999999904656,89,896520.1,899353,"8, 0","899353, 899637","No, just tried very hard to remember more of them on each round.",4,yes,no,55,female,yes,NA,no,NA,Food
wdqr0khtrkyu,2025-04-24,testing,NA,43,Salami,Bild46.png,0,18,1,4143.699999928474,106,900970,903075,"1, 8","903075, 904113","No, just tried very hard to remember more of them on each round.",4,yes,no,55,female,yes,NA,no,NA,Food
wdqr0khtrkyu,2025-04-24,testing,NA,44,Orange,Bild30.png,0,1,8,10751.499999904656,86,905120.1,906741,"1, NA, 4, NA, 1","906741, 907779, 909090, 912638, 914558","No, just tried very hard to remember more of them on each round.",4,yes,no,55,female,yes,NA,no,NA,Food
wdqr0khtrkyu,2025-04-24,testing,NA,45,Raspberry,Bild35.png,0,6,5,5401.499999904656,84,915887.1,919011,6,919011,"No, just tried very hard to remember more of them on each round.",4,yes,no,55,female,yes,NA,no,NA,Food
wdqr0khtrkyu,2025-04-24,testing,NA,46,Bread roll,Bild4.png,0,77,44,3431.299999904586,104,921303.3,923483,"7, 7","923483, 923628","No, just tried very hard to remember more of them on each round.",4,yes,no,55,female,yes,NA,no,NA,Food
wdqr0khtrkyu,2025-04-24,testing,NA,48,Yogurt,Bild39.png,0,10,6,4575.19999995234,89,928186.6,930972,"1, 0","930972, 931571","No, just tried very hard to remember more of them on each round.",4,yes,no,55,female,yes,NA,no,NA,Food
wdqr0khtrkyu,2025-04-24,testing,NA,49,White toast,Bild9.png,0,78,47,6803.300000000047,70,932770.2,935451,"7, 8","935451, 936977","No, just tried very hard to remember more of them on each round.",4,yes,no,55,female,yes,NA,no,NA,Food
wdqr0khtrkyu,2025-04-24,testing,NA,50,Vegetarian salami,Bild75.png,0,24,9,7130.299999976181,72,939586.6,944596,"2, 4","944596, 945418","No, just tried very hard to remember more of them on each round.",4,yes,no,55,female,yes,NA,no,NA,Food
wdqr0khtrkyu,2025-04-24,testing,NA,51,Spaghetti,Bild1.png,1,28,28,8288.399999952293,72,946720.4,948265,"2, 4, NA, 8","948265, 948670, 953464, 953849","No, just tried very hard to remember more of them on each round.",4,yes,no,55,female,yes,NA,no,NA,Food
wdqr0khtrkyu,2025-04-24,testing,NA,52,Rice,Bild2.png,0,16,28,6525.899999976158,72,955020,959892,"1, 6","959892, 960566","No, just tried very hard to remember more of them on each round.",4,yes,no,55,female,yes,NA,no,NA,Food
wdqr0khtrkyu,2025-04-24,testing,NA,53,Raspberry jam,Bild56.png,0,54,52,7571.699999999953,85,961553.3,964646,"7, 7, NA, NA, 5, 4","964646, 964991, 965600, 965760, 967467, 967998","No, just tried very hard to remember more of them on each round.",4,yes,no,55,female,yes,NA,no,NA,Food
wdqr0khtrkyu,2025-04-24,testing,NA,54,Cucumber,Bild13.png,0,1,2,3301.099999976112,71,969136.8,971356,1,971356,"No, just tried very hard to remember more of them on each round.",4,yes,no,55,female,yes,NA,no,NA,Food
wdqr0khtrkyu,2025-04-24,testing,NA,56,Mandarin,Bild31.png,0,2,10,3565.299999976181,72,975371.1,977768,2,977768,"No, just tried very hard to remember more of them on each round.",4,yes,no,55,female,yes,NA,no,NA,Food
wdqr0khtrkyu,2025-04-24,testing,NA,57,Peas,Bild23.png,0,5,9,3781.30399990466,88,978937.796,980385,5,980385,"No, just tried very hard to remember more of them on each round.",4,yes,no,55,female,yes,NA,no,NA,Food
wdqr0khtrkyu,2025-04-24,testing,NA,58,Apricot,Bild37.png,0,5,9,3257.713999976171,72,982721.186,984712,5,984712,"No, just tried very hard to remember more of them on each round.",4,yes,no,55,female,yes,NA,no,NA,Food
wdqr0khtrkyu,2025-04-24,testing,NA,59,Banana,Bild26.png,0,10,20,4911.399999952293,68,985986.9,988922,"1, 0","988922, 989449","No, just tried very hard to remember more of them on each round.",4,yes,no,55,female,yes,NA,no,NA,Food
wdqr0khtrkyu,2025-04-24,testing,NA,60,Bulgur,Bild10.png,0,16,24,4253.499999928521,85,990920.2,993309,"1, 6","993309, 993966","No, just tried very hard to remember more of them on each round.",4,yes,no,55,female,yes,NA,no,NA,Food
wdqr0khtrkyu,2025-04-24,testing,NA,61,Peanut butter,Bild58.png,0,54,17,3482.499999976135,66,995204.4,997068,"5, 4","997068, 997386","No, just tried very hard to remember more of them on each round.",4,yes,no,55,female,yes,NA,no,NA,Food
wdqr0khtrkyu,2025-04-24,testing,NA,62,Strawberry,Bild34.png,0,14,6,4580.935999999987,89,998687.064,1001408,"1, 4","1001408, 1002244","No, just tried very hard to remember more of them on each round.",4,yes,no,55,female,yes,NA,no,NA,Food
wdqr0khtrkyu,2025-04-24,testing,NA,63,Apple,Bild27.png,0,15,14,6813.599999976112,84,1003270.3,1007741,"1, 5","1007741, 1008900","No, just tried very hard to remember more of them on each round.",4,yes,no,55,female,yes,NA,no,NA,Food
wdqr0khtrkyu,2025-04-24,testing,NA,64,Peanuts,Bild69.png,0,8,11,9633.499999904656,72,1010104.6,1012355,"5, 0, NA, NA, 8","1012355, 1012783, 1014607, 1014777, 1018562","No, just tried very hard to remember more of them on each round.",4,yes,no,55,female,yes,NA,no,NA,Food
wdqr0khtrkyu,2025-04-24,testing,NA,65,Apple turnover,Bild65.png,1,54,34,2457.799999904586,67,1019753.8,1020959,"5, 4","1020959, 1021164","No, just tried very hard to remember more of them on each round.",4,yes,no,55,female,yes,NA,no,NA,Food
wdqr0khtrkyu,2025-04-24,testing,NA,66,Kidney beans,Bild29.png,0,14,13,10239.89999990468,187,1022220.7,1029096,"1, 4","1029096, 1030522","No, just tried very hard to remember more of them on each round.",4,yes,no,55,female,yes,NA,no,NA,Food
wdqr0khtrkyu,2025-04-24,testing,NA,67,Potatoes,Bild12.png,0,60,19,5859.099999999977,72,1032471.4,1036748,"6, 0","1036748, 1037366","No, just tried very hard to remember more of them on each round.",4,yes,no,55,female,yes,NA,no,NA,Food
wdqr0khtrkyu,2025-04-24,testing,NA,68,Vanilla pudding,Bild62.png,0,67,14,4634.699999976205,89,1038337.2,1041734,"6, 7","1041734, 1041924","No, just tried very hard to remember more of them on each round.",4,yes,no,55,female,yes,NA,no,NA,Food
wdqr0khtrkyu,2025-04-24,testing,NA,69,Tomatoes,Bild19.png,0,4,3,3619.099999952363,78,1042987.2,1044982,4,1044982,"No, just tried very hard to remember more of them on each round.",4,yes,no,55,female,yes,NA,no,NA,Food
wdqr0khtrkyu,2025-04-24,testing,NA,70,Cheesecake,Bild67.png,0,38,33,12373.499999904656,89,1046620.6,1048874,"2, 4, NA, NA, 3, 8","1048874, 1051304, 1053174, 1053658, 1056788, 1057561","No, just tried very hard to remember more of them on each round.",4,yes,no,55,female,yes,NA,no,NA,Food
wdqr0khtrkyu,2025-04-24,testing,NA,71,Oat flakes,Bild5.png,1,60,60,6734.999999976251,68,1059003.9,1064156,"6, 0","1064156, 1064599","No, just tried very hard to remember more of them on each round.",4,yes,no,55,female,yes,NA,no,NA,Food
wdqr0khtrkyu,2025-04-24,testing,NA,72,Whipped cream,Bild71.png,0,5,3,7009.299999928568,84,1065753.9,1071500,5,1071500,"No, just tried very hard to remember more of them on each round.",4,yes,no,55,female,yes,NA,no,NA,Food
wdqr0khtrkyu,2025-04-24,testing,NA,73,Beans,Bild25.png,0,3,3,4890.899999999907,88,1072770.6,1075259,3,1075259,"No, just tried very hard to remember more of them on each round.",4,yes,no,55,female,yes,NA,no,NA,Food
wdqr0khtrkyu,2025-04-24,testing,NA,74,Butter,Bild42.png,0,1,1,3087.399999904679,88,1077670.7,1079580,1,1079580,"No, just tried very hard to remember more of them on each round.",4,yes,no,55,female,yes,NA,no,NA,Food
wdqr0khtrkyu,2025-04-24,testing,NA,75,Shrimps,Bild50.png,0,7,3,6923.099999952363,105,1080770.7,1086632,7,1086632,"No, just tried very hard to remember more of them on each round.",4,yes,no,55,female,yes,NA,no,NA,Food
wdqr0khtrkyu,2025-04-24,testing,NA,77,Carrots,Bild15.png,0,8,7,6759.699999952223,104,1090621.1,1095804,8,1095804,"No, just tried very hard to remember more of them on each round.",4,yes,no,55,female,yes,NA,no,NA,Food
wdqr0khtrkyu,2025-04-24,testing,NA,78,Rice cake,Bild79.png,1,60,77,7982.399999976158,88,1097387.5,1103737,"6, 0","1103737, 1104267","No, just tried very hard to remember more of them on each round.",4,yes,no,55,female,yes,NA,no,NA,Food
wdqr0khtrkyu,2025-04-24,testing,NA,79,Chocolate,Bild61.png,0,50,55,2764.23999990453,72,1105371.86,1106584,"5, 0","1106584, 1107082","No, just tried very hard to remember more of them on each round.",4,yes,no,55,female,yes,NA,no,NA,Food
wdqr0khtrkyu,2025-04-24,testing,NA,80,Bread,Bild7.png,0,70,43,5003.799999904586,72,1108137.8,1110344,"7, 0","1110344, 1111692","No, just tried very hard to remember more of them on each round.",4,yes,no,55,female,yes,NA,no,NA,Food
wdqr0khtrkyu,2025-04-24,testing,NA,81,Cherry jam,Bild55.png,0,54,55,3115.699999999953,54,1113154.3,1114886,"5, 4","1114886, 1115205","No, just tried very hard to remember more of them on each round.",4,yes,no,55,female,yes,NA,no,NA,Food
wdqr0khtrkyu,2025-04-24,testing,NA,82,Kinder chocolate bar,Bild77.png,0,69,54,8051.599999904633,88,1116287.5,1122636,"6, 9","1122636, 1123159","No, just tried very hard to remember more of them on each round.",4,yes,no,55,female,yes,NA,no,NA,Food
puwl4gv8w7xv,2025-04-24,testing,NA,0,Vienna sausages,Bild48.png,0,1,1,26133.500000000695,122,1227518.8,1244731,1,1244731,memory.,5,yes,no,19,male,yes,NA,no,NA,Food
puwl4gv8w7xv,2025-04-24,testing,NA,1,Bread roll,Bild4.png,0,40,44,15966.2379999985,139,1253656.162,1267135,"4, 0","1267135, 1267928",memory.,5,yes,no,19,male,yes,NA,no,NA,Food
puwl4gv8w7xv,2025-04-24,testing,NA,2,Oat flakes,Bild5.png,1,60,60,9407.899999999208,113,1269637.8,1273711,"5, NA, 6, 0","1273711, 1274546, 1275066, 1275894",memory.,5,yes,no,19,male,yes,NA,no,NA,Food
puwl4gv8w7xv,2025-04-24,testing,NA,3,Banana,Bild26.png,0,22,20,14257.699999999257,159,1279060.5,1291970,"2, 2","1291970, 1292121",memory.,5,yes,no,19,male,yes,NA,no,NA,Food
puwl4gv8w7xv,2025-04-24,testing,NA,4,Kidney beans,Bild29.png,0,22,13,15224.599999998463,117,1293327.8,1306268,"2, 2","1306268, 1306409",memory.,5,yes,no,19,male,yes,NA,no,NA,Food
puwl4gv8w7xv,2025-04-24,testing,NA,5,Wrap,Bild11.png,0,40,52,9634.89999999851,158,1308560.5,1315807,"4, 0","1315807, 1316102",memory.,5,yes,no,19,male,yes,NA,no,NA,Food
puwl4gv8w7xv,2025-04-24,testing,NA,6,Cream cheese,Bild45.png,0,3,3,13671.299999998417,88,1318199.6,1328981,3,1328981,memory.,5,yes,no,19,male,yes,NA,no,NA,Food
puwl4gv8w7xv,2025-04-24,testing,NA,7,Apple turnover,Bild65.png,1,34,34,4395.200000000652,79,1331884.1,1334414,"3, 4","1334414, 1334629",memory.,5,yes,no,19,male,yes,NA,no,NA,Food
puwl4gv8w7xv,2025-04-24,testing,NA,8,Apple,Bild27.png,0,25,14,11383.899999999909,116,1336279.1,1343638,"2, 3, NA, 5","1343638, 1343882, 1344657, 1345137",memory.,5,yes,no,19,male,yes,NA,no,NA,Food
puwl4gv8w7xv,2025-04-24,testing,NA,9,Salami,Bild46.png,0,3,1,9451.199999998556,139,1347666.2,1355515,3,1355515,memory.,5,yes,no,19,male,yes,NA,no,NA,Food
puwl4gv8w7xv,2025-04-24,testing,NA,10,Bulgur,Bild10.png,0,21,24,11714.300000000048,98,1357122.2,1367625,"2, 1","1367625, 1367820",memory.,5,yes,no,19,male,yes,NA,no,NA,Food
puwl4gv8w7xv,2025-04-24,testing,NA,11,Cookies,Bild68.png,0,43,58,14953.100000000792,107,1368842.2,1382158,"4, 3","1382158, 1382395",memory.,5,yes,no,19,male,yes,NA,no,NA,Food
puwl4gv8w7xv,2025-04-24,testing,NA,12,Lentils,Bild24.png,0,20,25,14060.099999999162,88,1383808.6,1394145,"2, 0","1394145, 1394969",memory.,5,yes,no,19,male,yes,NA,no,NA,Food
puwl4gv8w7xv,2025-04-24,testing,NA,13,Cheesecake,Bild67.png,0,26,33,15496.599999997765,138,1397876.5,1408623,"2, 6","1408623, 1408942",memory.,5,yes,no,19,male,yes,NA,no,NA,Food
puwl4gv8w7xv,2025-04-24,testing,NA,14,Croissant,Bild8.png,0,41,47,33627.70599999861,88,1413379.194,1444445,"4, 1","1444445, 1444729",memory.,5,yes,no,19,male,yes,NA,no,NA,Food
puwl4gv8w7xv,2025-04-24,testing,NA,15,Broccoli,Bild18.png,0,8,2,18273.699999999255,97,1447020.5,1464232,8,1464232,memory.,5,yes,no,19,male,yes,NA,no,NA,Food
puwl4gv8w7xv,2025-04-24,testing,NA,16,Butter,Bild42.png,0,1,1,11545.399999999208,131,1465299.8,1474732,1,1474732,memory.,5,yes,no,19,male,yes,NA,no,NA,Food
puwl4gv8w7xv,2025-04-24,testing,NA,17,Radishes,Bild73.png,0,3,2,27790.599999997765,72,1476853.5,1487429,3,1487429,memory.,5,yes,no,19,male,yes,NA,no,NA,Food
puwl4gv8w7xv,2025-04-24,testing,NA,18,Rigatoni,Bild3.png,0,28,34,12102.099999998463,98,1504655.3,1514672,"2, 8","1514672, 1515159",memory.,5,yes,no,19,male,yes,NA,no,NA,Food
puwl4gv8w7xv,2025-04-24,testing,NA,19,Peanut butter,Bild58.png,0,5,17,7531.300000000047,124,1516758.2,1522720,5,1522720,memory.,5,yes,no,19,male,yes,NA,no,NA,Food
puwl4gv8w7xv,2025-04-24,testing,NA,20,Curd cheese,Bild40.png,0,3,4,18789.800000000047,69,1524299.7,1541160,3,1541160,memory.,5,yes,no,19,male,yes,NA,no,NA,Food
puwl4gv8w7xv,2025-04-24,testing,NA,21,Chocolate cake,Bild66.png,1,50,50,18405.200000000652,206,1543095.1,1546278,"5, 0","1546278, 1546676",memory.,5,yes,no,19,male,yes,NA,no,NA,Food
puwl4gv8w7xv,2025-04-24,testing,NA,22,White toast,Bild9.png,0,40,47,15273.399999997811,130,1561508.2,1572484,"4, 0","1572484, 1572810",memory.,5,yes,no,19,male,yes,NA,no,NA,Food
puwl4gv8w7xv,2025-04-24,testing,NA,23,Grapes,Bild38.png,0,18,15,12488.100000000091,132,1576790.4,1588106,"1, 8","1588106, 1588278",memory.,5,yes,no,19,male,yes,NA,no,NA,Food
puwl4gv8w7xv,2025-04-24,testing,NA,24,Walnuts,Bild70.png,1,4,4,6376.800000000047,139,1589292.7,1593459,4,1593459,memory.,5,yes,no,19,male,yes,NA,no,NA,Food
puwl4gv8w7xv,2025-04-24,testing,NA,25,Ice cream,Bild60.png,0,21,19,11717.300000000048,37,1595691.2,1605596,"2, 1","1605596, 1605811",memory.,5,yes,no,19,male,yes,NA,no,NA,Food
puwl4gv8w7xv,2025-04-24,testing,NA,26,Pineapple,Bild33.png,0,13,12,13663.699999997858,181,1607438.9,1618306,"1, 3","1618306, 1618785",memory.,5,yes,no,19,male,yes,NA,no,NA,Food
puwl4gv8w7xv,2025-04-24,testing,NA,27,Tomatoes,Bild19.png,0,3,3,11357.374000000067,49,1621107.126,1630983,3,1630983,memory.,5,yes,no,19,male,yes,NA,no,NA,Food
puwl4gv8w7xv,2025-04-24,testing,NA,28,Salmon,Bild51.png,0,0,0,14719.600000000091,88,1632493.9,1645260,0,1645260,memory.,5,yes,no,19,male,yes,NA,no,NA,Food
puwl4gv8w7xv,2025-04-24,testing,NA,30,Nutella,Bild54.png,1,57,57,7066.300000000745,123,1651206,1656458,"5, 7","1656458, 1656745",memory.,5,yes,no,19,male,yes,NA,no,NA,Food
puwl4gv8w7xv,2025-04-24,testing,NA,31,Dried ham,Bild47.png,0,35,1,3148.699999999255,117,1658281.5,1659983,"3, 5","1659983, 1660197",memory.,5,yes,no,19,male,yes,NA,no,NA,Food
puwl4gv8w7xv,2025-04-24,testing,NA,32,Fish sticks,Bild74.png,0,25,18,1843.900000000838,146,1661444.4,1661783,"2, 5","1661783, 1661964",memory.,5,yes,no,19,male,yes,NA,no,NA,Food
puwl4gv8w7xv,2025-04-24,testing,NA,33,Carrots,Bild15.png,0,24,7,1969.099999998463,74,1663292.3,1663588,"2, 4","1663588, 1663754",memory.,5,yes,no,19,male,yes,NA,no,NA,Food
puwl4gv8w7xv,2025-04-24,testing,NA,34,Iceberg lettuce,Bild20.png,0,12,2,2461.299999999348,98,1665273.4,1666501,"1, 2","1666501, 1666591",memory.,5,yes,no,19,male,yes,NA,no,NA,Food
puwl4gv8w7xv,2025-04-24,testing,NA,35,Watermelon,Bild28.png,0,31,8,1803.845999998506,54,1667739.554,1668290,"3, 1","1668290, 1668483",memory.,5,yes,no,19,male,yes,NA,no,NA,Food
puwl4gv8w7xv,2025-04-24,testing,NA,36,Potatoes,Bild12.png,0,12,19,1453.799999998417,73,1669568.6,1669863,"1, 2","1669863, 1669965",memory.,5,yes,no,19,male,yes,NA,no,NA,Food
puwl4gv8w7xv,2025-04-24,testing,NA,37,Cucumber,Bild13.png,0,31,2,1745.200000000652,65,1671033.6,1671538,"3, 1","1671538, 1671710",memory.,5,yes,no,19,male,yes,NA,no,NA,Food
puwl4gv8w7xv,2025-04-24,testing,NA,38,Strawberry,Bild34.png,0,21,6,2340.599999999162,53,1672781.6,1673141,"2, 1","1673141, 1674102",memory.,5,yes,no,19,male,yes,NA,no,NA,Food
puwl4gv8w7xv,2025-04-24,testing,NA,39,Orange,Bild30.png,0,21,8,3206.699999997858,15,1675129.9,1675706,"2, 1, 2, NA","1675706, 1675817, 1676115, 1677616",memory.,5,yes,no,19,male,yes,NA,no,NA,Food
puwl4gv8w7xv,2025-04-24,testing,NA,40,Mozzarella,Bild44.png,0,24,1,8900.300000000047,145,1678358.7,1682255,"2, 4","1682255, 1682306",memory.,5,yes,no,19,male,yes,NA,no,NA,Food
puwl4gv8w7xv,2025-04-24,testing,NA,41,Mango,Bild32.png,0,14,13,10984.999999999302,55,1687265.2,1696673,"1, 4","1696673, 1697276",memory.,5,yes,no,19,male,yes,NA,no,NA,Food
puwl4gv8w7xv,2025-04-24,testing,NA,42,Rice,Bild2.png,0,28,28,25604,110,1698269.5,1713115,"2, 8","1713115, 1713695",memory.,5,yes,no,19,male,yes,NA,no,NA,Food
puwl4gv8w7xv,2025-04-24,testing,NA,43,Honey,Bild57.png,0,86,81,25905.39999999921,87,1723873.8,1744630,"8, 0, NA, 6","1744630, 1745547, 1746558, 1747090",memory.,5,yes,no,19,male,yes,NA,no,NA,Food
puwl4gv8w7xv,2025-04-24,testing,NA,44,Fried egg,Bild17.png,0,34,2,3761.899999997811,82,1749800.7,1752426,"3, 4","1752426, 1752506",memory.,5,yes,no,19,male,yes,NA,no,NA,Food
puwl4gv8w7xv,2025-04-24,testing,NA,45,Raspberry,Bild35.png,0,34,5,1652.89999999851,87,1753573.5,1754090,"3, 4","1754090, 1754192",memory.,5,yes,no,19,male,yes,NA,no,NA,Food
puwl4gv8w7xv,2025-04-24,testing,NA,46,Feta,Bild43.png,0,12,1,1851.799999997718,81,1755238.3,1755632,"1, 2","1755632, 1755831",memory.,5,yes,no,19,male,yes,NA,no,NA,Food
puwl4gv8w7xv,2025-04-24,testing,NA,47,Chips,Bild63.png,0,23,51,1839.299999999348,71,1757102.9,1757576,"2, 3","1757576, 1757842",memory.,5,yes,no,19,male,yes,NA,no,NA,Food
puwl4gv8w7xv,2025-04-24,testing,NA,48,Couscous,Bild6.png,0,12,29,1620.799999999348,73,1758950.9,1759426,"1, 2","1759426, 1759650",memory.,5,yes,no,19,male,yes,NA,no,NA,Food
puwl4gv8w7xv,2025-04-24,testing,NA,49,Mushrooms,Bild22.png,1,1,1,8794.899999997811,87,1760582.2,1761112,"6, 2, NA, NA, 1","1761112, 1761460, 1766784, 1766968, 1767364",memory.,5,yes,no,19,male,yes,NA,no,NA,Food
puwl4gv8w7xv,2025-04-24,testing,NA,50,Pear,Bild36.png,0,31,12,6378.5,128,1769389,1771432,"7, 3, NA, NA, 3, 1","1771432, 1771646, 1773108, 1773486, 1774212, 1774415",memory.,5,yes,no,19,male,yes,NA,no,NA,Food
puwl4gv8w7xv,2025-04-24,testing,NA,51,Gouda cheese,Bild41.png,0,31,0,3781.100000000792,123,1775781.7,1777533,"3, 1","1777533, 1777583",memory.,5,yes,no,19,male,yes,NA,no,NA,Food
puwl4gv8w7xv,2025-04-24,testing,NA,52,Vanilla pudding,Bild62.png,0,31,14,1780.199999999255,108,1779577.5,1780160,"3, 1","1780160, 1780231",memory.,5,yes,no,19,male,yes,NA,no,NA,Food
puwl4gv8w7xv,2025-04-24,testing,NA,53,Cauliflower,Bild21.png,0,12,2,2145.999999999302,109,1781358.7,1782245,"1, 2","1782245, 1782376",memory.,5,yes,no,19,male,yes,NA,no,NA,Food
puwl4gv8w7xv,2025-04-24,testing,NA,54,Rice cake,Bild79.png,1,71,77,8336.599999998463,106,1783506.3,1783971,"2, NA, 7, 1","1783971, 1790072, 1790520, 1790724",memory.,5,yes,no,19,male,yes,NA,no,NA,Food
puwl4gv8w7xv,2025-04-24,testing,NA,55,Chickpeas,Bild72.png,1,16,16,4822.299999997718,139,1791846.8,1794241,"1, 6","1794241, 1795017",memory.,5,yes,no,19,male,yes,NA,no,NA,Food
puwl4gv8w7xv,2025-04-24,testing,NA,56,Spaghetti,Bild1.png,1,28,28,4610.800000000047,102,1796674.7,1799647,"2, 8","1799647, 1800240",memory.,5,yes,no,19,male,yes,NA,no,NA,Food
puwl4gv8w7xv,2025-04-24,testing,NA,57,Pork,Bild52.png,0,0,0,10027.800000000048,149,1801286.2,1810091,0,1810091,memory.,5,yes,no,19,male,yes,NA,no,NA,Food
puwl4gv8w7xv,2025-04-24,testing,NA,58,Vegetarian salami,Bild75.png,0,0,9,4648.999999998603,124,1811324.9,1814568,0,1814568,memory.,5,yes,no,19,male,yes,NA,no,NA,Food
puwl4gv8w7xv,2025-04-24,testing,NA,59,Whipped cream,Bild71.png,0,12,3,3015.399999997811,87,1815986.2,1817328,"1, 2","1817328, 1817764",memory.,5,yes,no,19,male,yes,NA,no,NA,Food
puwl4gv8w7xv,2025-04-24,testing,NA,60,Bell pepper,Bild14.png,0,12,6,1859.399999999907,96,1819016.1,1819739,"1, 2","1819739, 1819742",memory.,5,yes,no,19,male,yes,NA,no,NA,Food
puwl4gv8w7xv,2025-04-24,testing,NA,62,Eggplant,Bild78.png,0,12,3,1911.900000000838,74,1824110.4,1824787,"1, 2","1824787, 1824930",memory.,5,yes,no,19,male,yes,NA,no,NA,Food
puwl4gv8w7xv,2025-04-24,testing,NA,63,Yogurt,Bild39.png,0,12,6,1781.850000000093,90,1826028.15,1826648,"1, 2","1826648, 1826738",memory.,5,yes,no,19,male,yes,NA,no,NA,Food
puwl4gv8w7xv,2025-04-24,testing,NA,64,Peas,Bild23.png,0,15,9,8313.000000000698,106,1827822.8,1833139,"1, 5","1833139, 1834956",memory.,5,yes,no,19,male,yes,NA,no,NA,Food
puwl4gv8w7xv,2025-04-24,testing,NA,65,Peanuts,Bild69.png,0,4,11,4178.799999997718,98,1836146.8,1839146,4,1839146,memory.,5,yes,no,19,male,yes,NA,no,NA,Food
puwl4gv8w7xv,2025-04-24,testing,NA,66,Chocolate,Bild61.png,0,50,55,4605.899999999208,104,1840346.8,1842376,"5, 0","1842376, 1843100",memory.,5,yes,no,19,male,yes,NA,no,NA,Food
puwl4gv8w7xv,2025-04-24,testing,NA,67,Shrimps,Bild50.png,0,12,3,3135.499999998603,89,1844953.4,1846863,"1, 2","1846863, 1846995",memory.,5,yes,no,19,male,yes,NA,no,NA,Food
puwl4gv8w7xv,2025-04-24,testing,NA,68,Bread,Bild7.png,0,12,43,2690.600000000093,88,1848099.9,1849192,"1, 2","1849192, 1849304",memory.,5,yes,no,19,male,yes,NA,no,NA,Food
puwl4gv8w7xv,2025-04-24,testing,NA,69,Tuna (canned),Bild49.png,0,12,0,2208.599999998463,106,1850796.8,1851523,"1, 2","1851523, 1851664",memory.,5,yes,no,19,male,yes,NA,no,NA,Food
puwl4gv8w7xv,2025-04-24,testing,NA,70,Pretzel sticks,Bild64.png,0,12,72,1929.600000000093,91,1853010.9,1853648,"1, 2","1853648, 1853790",memory.,5,yes,no,19,male,yes,NA,no,NA,Food
puwl4gv8w7xv,2025-04-24,testing,NA,71,Dextrose,Bild80.png,0,100,91,19577.2799999984,115,1854945.12,1857920,"0, NA, 1, 0, 0","1857920, 1871925, 1872241, 1873016, 1873199",memory.,5,yes,no,19,male,yes,NA,no,NA,Food
puwl4gv8w7xv,2025-04-24,testing,NA,73,Raspberry jam,Bild56.png,0,12,52,2836.771999999182,104,1877633.428,1879210,"1, 2","1879210, 1879374",memory.,5,yes,no,19,male,yes,NA,no,NA,Food
puwl4gv8w7xv,2025-04-24,testing,NA,74,Beans,Bild25.png,0,12,3,2554.300000000047,88,1880480.2,1881603,"1, 2","1881603, 1881703",memory.,5,yes,no,19,male,yes,NA,no,NA,Food
puwl4gv8w7xv,2025-04-24,testing,NA,75,Kinder chocolate bar,Bild77.png,0,50,54,4175.599999999162,82,1883043.6,1885579,"5, 0","1885579, 1886128",memory.,5,yes,no,19,male,yes,NA,no,NA,Food
puwl4gv8w7xv,2025-04-24,testing,NA,76,Chicken,Bild53.png,1,2,2,5105.244000000646,98,1887223.556,1890420,2,1890420,memory.,5,yes,no,19,male,yes,NA,no,NA,Food
puwl4gv8w7xv,2025-04-24,testing,NA,77,Mandarin,Bild31.png,0,12,10,2818.899999999907,107,1892333.1,1893723,"1, 2","1893723, 1893966",memory.,5,yes,no,19,male,yes,NA,no,NA,Food
puwl4gv8w7xv,2025-04-24,testing,NA,78,French fries,Bild76.png,0,30,24,10592.300000000048,89,1895163.2,1896113,"1, NA, 3, 0","1896113, 1897483, 1903777, 1904187",memory.,5,yes,no,19,male,yes,NA,no,NA,Food
puwl4gv8w7xv,2025-04-24,testing,NA,79,Gummy bears,Bild59.png,1,77,77,4652.999999998603,74,1905767.9,1908327,"7, 7","1908327, 1908479",memory.,5,yes,no,19,male,yes,NA,no,NA,Food
puwl4gv8w7xv,2025-04-24,testing,NA,80,Apricot,Bild37.png,0,12,9,2618.699999997858,87,1910429.4,1911668,"1, 2","1911668, 1911749",memory.,5,yes,no,19,male,yes,NA,no,NA,Food
puwl4gv8w7xv,2025-04-24,testing,NA,81,Corn,Bild16.png,1,11,11,3935.999999997672,27,1913059.6,1915307,"1, 1","1915307, 1915542",memory.,5,yes,no,19,male,yes,NA,no,NA,Food
puwl4gv8w7xv,2025-04-24,testing,NA,82,Cherry jam,Bild55.png,0,12,55,5046.299999997718,122,1917021.8,1917984,"1, 2","1917984, 1918148",memory.,5,yes,no,19,male,yes,NA,no,NA,Food
i636fcg5x0fy,2025-04-24,testing,NA,0,Radishes,Bild73.png,0,12,2,13272.20000000007,93,781370.8,792172,"1, 2","792172, 792459","No strategy, just guess work",4,yes,no,64,female,yes,NA,no,NA,Food
i636fcg5x0fy,2025-04-24,testing,NA,1,Ice cream,Bild60.png,0,77,19,7945.100000000093,126,794652.6,801115,"7, 7","801115, 801323","No strategy, just guess work",4,yes,no,64,female,yes,NA,no,NA,Food
i636fcg5x0fy,2025-04-24,testing,NA,2,Kinder chocolate bar,Bild77.png,0,55,54,9165.1179999999,132,802602.682,808420,"5, 5","808420, 810139","No strategy, just guess work",4,yes,no,64,female,yes,NA,no,NA,Food
i636fcg5x0fy,2025-04-24,testing,NA,3,Couscous,Bild6.png,0,77,29,5142.790000000154,120,811769.21,815284,"7, 7","815284, 815499","No strategy, just guess work",4,yes,no,64,female,yes,NA,no,NA,Food
i636fcg5x0fy,2025-04-24,testing,NA,4,Rice,Bild2.png,0,77,28,3138.099999999977,102,816919.7,818692,"7, 7","818692, 818915","No strategy, just guess work",4,yes,no,64,female,yes,NA,no,NA,Food
i636fcg5x0fy,2025-04-24,testing,NA,5,Chicken,Bild53.png,1,2,2,4042.699999999953,103,820068.9,822915,2,822915,"No strategy, just guess work",4,yes,no,64,female,yes,NA,no,NA,Food
i636fcg5x0fy,2025-04-24,testing,NA,6,Potatoes,Bild12.png,0,80,19,5633,117,824118.9,828139,"8, 0","828139, 828499","No strategy, just guess work",4,yes,no,64,female,yes,NA,no,NA,Food
i636fcg5x0fy,2025-04-24,testing,NA,7,Mushrooms,Bild22.png,1,1,1,5118.483999999939,155,829752.316,833795,1,833795,"No strategy, just guess work",4,yes,no,64,female,yes,NA,no,NA,Food
i636fcg5x0fy,2025-04-24,testing,NA,8,Shrimps,Bild50.png,0,5,3,4097.599999999977,126,834886.3,837627,5,837627,"No strategy, just guess work",4,yes,no,64,female,yes,NA,no,NA,Food
i636fcg5x0fy,2025-04-24,testing,NA,9,Corn,Bild16.png,1,11,11,4933.044000000111,85,838985.656,842492,"1, 1","842492, 842699","No strategy, just guess work",4,yes,no,64,female,yes,NA,no,NA,Food
i636fcg5x0fy,2025-04-24,testing,NA,10,Curd cheese,Bild40.png,0,34,4,10199.199999999952,119,843936.6,852526,"3, 4","852526, 852987","No strategy, just guess work",4,yes,no,64,female,yes,NA,no,NA,Food
i636fcg5x0fy,2025-04-24,testing,NA,11,Mandarin,Bild31.png,0,3,10,4728.199999999953,128,854152.6,857811,3,857811,"No strategy, just guess work",4,yes,no,64,female,yes,NA,no,NA,Food
i636fcg5x0fy,2025-04-24,testing,NA,12,Walnuts,Bild70.png,1,4,4,3897.699999999953,125,858885.1,861707,4,861707,"No strategy, just guess work",4,yes,no,64,female,yes,NA,no,NA,Food
i636fcg5x0fy,2025-04-24,testing,NA,13,Cauliflower,Bild21.png,0,38,2,7231.006000000052,109,862785.694,868459,"3, 8","868459, 868763","No strategy, just guess work",4,yes,no,64,female,yes,NA,no,NA,Food
i636fcg5x0fy,2025-04-24,testing,NA,14,Yogurt,Bild39.png,0,50,6,8243.283999999985,128,870018.616,876619,"5, 0","876619, 877011","No strategy, just guess work",4,yes,no,64,female,yes,NA,no,NA,Food
i636fcg5x0fy,2025-04-24,testing,NA,16,Peas,Bild23.png,0,8,9,9990.900000000023,141,882834.8,891708,8,891708,"No strategy, just guess work",4,yes,no,64,female,yes,NA,no,NA,Food
i636fcg5x0fy,2025-04-24,testing,NA,17,Pretzel sticks,Bild64.png,0,48,72,5772.900000000023,119,892834.8,897387,"4, 8","897387, 897651","No strategy, just guess work",4,yes,no,64,female,yes,NA,no,NA,Food
i636fcg5x0fy,2025-04-24,testing,NA,18,Apple,Bild27.png,0,3,14,3061.699999999953,118,898618.1,900643,3,900643,"No strategy, just guess work",4,yes,no,64,female,yes,NA,no,NA,Food
i636fcg5x0fy,2025-04-24,testing,NA,19,Carrots,Bild15.png,0,2,7,4657.099999999977,125,901684.7,905276,2,905276,"No strategy, just guess work",4,yes,no,64,female,yes,NA,no,NA,Food
i636fcg5x0fy,2025-04-24,testing,NA,20,Peanuts,Bild69.png,0,8,11,6441.400000000023,117,906351.3,911804,8,911804,"No strategy, just guess work",4,yes,no,64,female,yes,NA,no,NA,Food
i636fcg5x0fy,2025-04-24,testing,NA,21,Kidney beans,Bild29.png,0,12,13,6492.599999999977,120,912801.2,917940,"1, 2","917940, 918211","No strategy, just guess work",4,yes,no,64,female,yes,NA,no,NA,Food
i636fcg5x0fy,2025-04-24,testing,NA,22,Chips,Bild63.png,0,66,51,4819.500000000116,126,919301.2,922876,"6, 6","922876, 923107","No strategy, just guess work",4,yes,no,64,female,yes,NA,no,NA,Food
i636fcg5x0fy,2025-04-24,testing,NA,23,Fish sticks,Bild74.png,0,38,18,10288.400000000023,94,924134.5,928923,"2, NA, 3, 8","928923, 930955, 932475, 933307","No strategy, just guess work",4,yes,no,64,female,yes,NA,no,NA,Food
i636fcg5x0fy,2025-04-24,testing,NA,24,Rigatoni,Bild3.png,0,32,34,7380.400000000023,46,934434.3,939419,"3, 2","939419, 939729","No strategy, just guess work",4,yes,no,64,female,yes,NA,no,NA,Food
i636fcg5x0fy,2025-04-24,testing,NA,25,Tuna (canned),Bild49.png,0,2,0,3266.983999999939,119,941817.816,944067,2,944067,"No strategy, just guess work",4,yes,no,64,female,yes,NA,no,NA,Food
i636fcg5x0fy,2025-04-24,testing,NA,26,Pear,Bild36.png,0,3,12,2680.500000000116,93,945102.2,946627,3,946627,"No strategy, just guess work",4,yes,no,64,female,yes,NA,no,NA,Food
i636fcg5x0fy,2025-04-24,testing,NA,27,Strawberry,Bild34.png,0,3,6,2774.824000000139,102,947784.676,949516,3,949516,"No strategy, just guess work",4,yes,no,64,female,yes,NA,no,NA,Food
i636fcg5x0fy,2025-04-24,testing,NA,28,Eggplant,Bild78.png,0,4,3,3991.099999999977,95,950567.5,953507,4,953507,"No strategy, just guess work",4,yes,no,64,female,yes,NA,no,NA,Food
i636fcg5x0fy,2025-04-24,testing,NA,29,Bread roll,Bild4.png,0,46,44,8382.300000000047,111,954567.4,959587,"4, 6","959587, 961875","No strategy, just guess work",4,yes,no,64,female,yes,NA,no,NA,Food
i636fcg5x0fy,2025-04-24,testing,NA,30,Croissant,Bild8.png,0,78,47,5375.650000000023,101,962951.05,966075,"7, 8","966075, 966354","No strategy, just guess work",4,yes,no,64,female,yes,NA,no,NA,Food
i636fcg5x0fy,2025-04-24,testing,NA,32,Peanut butter,Bild58.png,0,40,17,12528.699999999952,143,972000.6,982348,"4, 0","982348, 983211","No strategy, just guess work",4,yes,no,64,female,yes,NA,no,NA,Food
i636fcg5x0fy,2025-04-24,testing,NA,33,Raspberry,Bild35.png,0,3,5,2785.506000000169,104,984533.994,986347,3,986347,"No strategy, just guess work",4,yes,no,64,female,yes,NA,no,NA,Food
i636fcg5x0fy,2025-04-24,testing,NA,34,Wrap,Bild11.png,0,38,52,5120.999999999884,101,987333.8,990875,"3, 8","990875, 991162","No strategy, just guess work",4,yes,no,64,female,yes,NA,no,NA,Food
i636fcg5x0fy,2025-04-24,testing,NA,35,Honey,Bild57.png,0,1,81,3947.5,95,992467.1,995276,1,995276,"No strategy, just guess work",4,yes,no,64,female,yes,NA,no,NA,Food
i636fcg5x0fy,2025-04-24,testing,NA,36,Apricot,Bild37.png,0,3,9,3270.284000000102,93,996417.216,998555,3,998555,"No strategy, just guess work",4,yes,no,64,female,yes,NA,no,NA,Food
i636fcg5x0fy,2025-04-24,testing,NA,37,Apple turnover,Bild65.png,1,34,34,5342.100000000093,110,999700.4,1003748,"3, 4","1003748, 1004035","No strategy, just guess work",4,yes,no,64,female,yes,NA,no,NA,Food
i636fcg5x0fy,2025-04-24,testing,NA,38,Butter,Bild42.png,0,60,1,10125.400000000023,140,1005050.3,1012979,"6, 0","1012979, 1013979","No strategy, just guess work",4,yes,no,64,female,yes,NA,no,NA,Food
i636fcg5x0fy,2025-04-24,testing,NA,39,Orange,Bild30.png,0,3,8,2560.000000000116,110,1015183.5,1016755,3,1016755,"No strategy, just guess work",4,yes,no,64,female,yes,NA,no,NA,Food
i636fcg5x0fy,2025-04-24,testing,NA,40,Chocolate cake,Bild66.png,1,50,50,2985.900000000023,117,1017766.8,1019339,"5, 0","1019339, 1019658","No strategy, just guess work",4,yes,no,64,female,yes,NA,no,NA,Food
i636fcg5x0fy,2025-04-24,testing,NA,41,Bulgur,Bild10.png,0,41,24,12404.79999999993,103,1020767.8,1030284,"4, 1","1030284, 1032099","No strategy, just guess work",4,yes,no,64,female,yes,NA,no,NA,Food
i636fcg5x0fy,2025-04-24,testing,NA,42,Grapes,Bild38.png,0,3,15,2311.29999999993,110,1033183.3,1034595,3,1034595,"No strategy, just guess work",4,yes,no,64,female,yes,NA,no,NA,Food
i636fcg5x0fy,2025-04-24,testing,NA,43,Cherry jam,Bild55.png,0,62,55,11373.699999999952,110,1035499.9,1045492,"6, 2","1045492, 1045867","No strategy, just guess work",4,yes,no,64,female,yes,NA,no,NA,Food
i636fcg5x0fy,2025-04-24,testing,NA,44,Tomatoes,Bild19.png,0,2,3,3635.29999999993,116,1046883.1,1049059,2,1049059,"No strategy, just guess work",4,yes,no,64,female,yes,NA,no,NA,Food
i636fcg5x0fy,2025-04-24,testing,NA,45,Gummy bears,Bild59.png,1,77,77,4162.5,110,1050533.1,1053363,"7, 7","1053363, 1053578","No strategy, just guess work",4,yes,no,64,female,yes,NA,no,NA,Food
i636fcg5x0fy,2025-04-24,testing,NA,46,Oat flakes,Bild5.png,1,60,60,3889.31799999997,112,1054700.082,1057036,"6, 0","1057036, 1057338","No strategy, just guess work",4,yes,no,64,female,yes,NA,no,NA,Food
i636fcg5x0fy,2025-04-24,testing,NA,47,Watermelon,Bild28.png,0,6,8,4609.800000000047,95,1058599.7,1061699,6,1061699,"No strategy, just guess work",4,yes,no,64,female,yes,NA,no,NA,Food
i636fcg5x0fy,2025-04-24,testing,NA,49,Cookies,Bild68.png,0,43,58,5824.300000000279,112,1066566.4,1070804,"4, 3","1070804, 1071258","No strategy, just guess work",4,yes,no,64,female,yes,NA,no,NA,Food
i636fcg5x0fy,2025-04-24,testing,NA,50,Salmon,Bild51.png,0,1,0,3200.100000000093,94,1072399.5,1074371,1,1074371,"No strategy, just guess work",4,yes,no,64,female,yes,NA,no,NA,Food
i636fcg5x0fy,2025-04-24,testing,NA,51,Iceberg lettuce,Bild20.png,0,1,2,4167.100000000093,99,1075617.4,1078491,1,1078491,"No strategy, just guess work",4,yes,no,64,female,yes,NA,no,NA,Food
i636fcg5x0fy,2025-04-24,testing,NA,52,French fries,Bild76.png,0,68,24,5223,117,1079799.5,1083667,"6, 8","1083667, 1083938","No strategy, just guess work",4,yes,no,64,female,yes,NA,no,NA,Food
i636fcg5x0fy,2025-04-24,testing,NA,53,Nutella,Bild54.png,1,57,57,4105.59999999986,111,1085032.7,1087643,"5, 7","1087643, 1087914","No strategy, just guess work",4,yes,no,64,female,yes,NA,no,NA,Food
i636fcg5x0fy,2025-04-24,testing,NA,54,Spaghetti,Bild1.png,1,28,28,3912.999999999767,93,1089149.3,1091459,"2, 8","1091459, 1091755","No strategy, just guess work",4,yes,no,64,female,yes,NA,no,NA,Food
i636fcg5x0fy,2025-04-24,testing,NA,55,Vienna sausages,Bild48.png,0,8,1,5396.388000000035,117,1093066.212,1097195,8,1097195,"No strategy, just guess work",4,yes,no,64,female,yes,NA,no,NA,Food
i636fcg5x0fy,2025-04-24,testing,NA,56,Mozzarella,Bild44.png,0,30,1,12341.865999999922,110,1098466.534,1109268,"3, 0","1109268, 1109651","No strategy, just guess work",4,yes,no,64,female,yes,NA,no,NA,Food
i636fcg5x0fy,2025-04-24,testing,NA,57,Mango,Bild32.png,0,4,13,4421.699999999953,113,1110815.7,1113916,4,1113916,"No strategy, just guess work",4,yes,no,64,female,yes,NA,no,NA,Food
i636fcg5x0fy,2025-04-24,testing,NA,58,Fried egg,Bild17.png,0,32,2,11198.5,110,1115249.1,1125220,"3, 2","1125220, 1125474","No strategy, just guess work",4,yes,no,64,female,yes,NA,no,NA,Food
i636fcg5x0fy,2025-04-24,testing,NA,59,Whipped cream,Bild71.png,0,79,3,5933.639999999898,88,1126465.86,1130435,"7, 9","1130435, 1130819","No strategy, just guess work",4,yes,no,64,female,yes,NA,no,NA,Food
i636fcg5x0fy,2025-04-24,testing,NA,60,Cream cheese,Bild45.png,0,78,3,3840.199999999953,110,1132416.3,1134923,"7, 8","1134923, 1135202","No strategy, just guess work",4,yes,no,64,female,yes,NA,no,NA,Food
i636fcg5x0fy,2025-04-24,testing,NA,61,Cucumber,Bild13.png,0,2,2,3536,96,1136265.5,1138684,2,1138684,"No strategy, just guess work",4,yes,no,64,female,yes,NA,no,NA,Food
i636fcg5x0fy,2025-04-24,testing,NA,62,Vegetarian salami,Bild75.png,0,28,9,8374.899999999907,118,1139815.5,1146684,"2, 8","1146684, 1146970","No strategy, just guess work",4,yes,no,64,female,yes,NA,no,NA,Food
i636fcg5x0fy,2025-04-24,testing,NA,63,Lentils,Bild24.png,0,18,25,9527.500000000233,110,1148198.7,1155171,"1, 8","1155171, 1156569","No strategy, just guess work",4,yes,no,64,female,yes,NA,no,NA,Food
i636fcg5x0fy,2025-04-24,testing,NA,64,White toast,Bild9.png,0,55,47,5141.299999999814,100,1157732,1161426,"5, 5","1161426, 1161650","No strategy, just guess work",4,yes,no,64,female,yes,NA,no,NA,Food
i636fcg5x0fy,2025-04-24,testing,NA,65,Chocolate,Bild61.png,0,50,55,3877.399999999907,118,1162881.9,1164786,"5, 0","1164786, 1165106","No strategy, just guess work",4,yes,no,64,female,yes,NA,no,NA,Food
i636fcg5x0fy,2025-04-24,testing,NA,66,Beans,Bild25.png,0,6,3,10409.199999999952,119,1166765.2,1175938,6,1175938,"No strategy, just guess work",4,yes,no,64,female,yes,NA,no,NA,Food
i636fcg5x0fy,2025-04-24,testing,NA,67,Vanilla pudding,Bild62.png,0,58,14,4810.59999999986,118,1177181.8,1179955,"5, 8","1179955, 1180426","No strategy, just guess work",4,yes,no,64,female,yes,NA,no,NA,Food
i636fcg5x0fy,2025-04-24,testing,NA,68,Pineapple,Bild33.png,0,4,12,3692.199999999953,85,1181998.3,1184515,4,1184515,"No strategy, just guess work",4,yes,no,64,female,yes,NA,no,NA,Food
i636fcg5x0fy,2025-04-24,testing,NA,69,Chickpeas,Bild72.png,1,16,16,4290.899999999907,95,1185698.4,1188315,"1, 6","1188315, 1188746","No strategy, just guess work",4,yes,no,64,female,yes,NA,no,NA,Food
i636fcg5x0fy,2025-04-24,testing,NA,70,Banana,Bild26.png,0,35,20,15008.09999999986,96,1189998.3,1200667,"5, 5, NA, NA, 3, 5","1200667, 1200882, 1202371, 1202595, 1203682, 1203938","No strategy, just guess work",4,yes,no,64,female,yes,NA,no,NA,Food
i636fcg5x0fy,2025-04-24,testing,NA,71,Rice cake,Bild79.png,1,77,77,4849.800000000047,121,1205014.8,1207668,"7, 7","1207668, 1207882","No strategy, just guess work",4,yes,no,64,female,yes,NA,no,NA,Food
i636fcg5x0fy,2025-04-24,testing,NA,72,Dextrose,Bild80.png,0,18,91,6165.347999999765,104,1209864.952,1214692,"1, 8","1214692, 1214963","No strategy, just guess work",4,yes,no,64,female,yes,NA,no,NA,Food
i636fcg5x0fy,2025-04-24,testing,NA,73,Broccoli,Bild18.png,0,8,2,4990.809999999823,112,1216031.49,1219995,8,1219995,"No strategy, just guess work",4,yes,no,64,female,yes,NA,no,NA,Food
i636fcg5x0fy,2025-04-24,testing,NA,74,Cheesecake,Bild67.png,0,65,33,8087.000000000233,84,1221031.2,1227404,"6, 5","1227404, 1227954","No strategy, just guess work",4,yes,no,64,female,yes,NA,no,NA,Food
i636fcg5x0fy,2025-04-24,testing,NA,75,Bread,Bild7.png,0,55,43,3721.199999999953,103,1229131.2,1231739,"5, 5","1231739, 1231930","No strategy, just guess work",4,yes,no,64,female,yes,NA,no,NA,Food
i636fcg5x0fy,2025-04-24,testing,NA,76,Salami,Bild46.png,0,15,1,5918.100000000093,95,1232864.5,1237435,"1, 5","1237435, 1237714","No strategy, just guess work",4,yes,no,64,female,yes,NA,no,NA,Food
i636fcg5x0fy,2025-04-24,testing,NA,77,Feta,Bild43.png,0,34,1,7657.699999999953,96,1238797.8,1244819,"3, 4","1244819, 1245218","No strategy, just guess work",4,yes,no,64,female,yes,NA,no,NA,Food
i636fcg5x0fy,2025-04-24,testing,NA,78,Dried ham,Bild47.png,0,18,1,5241.199999999953,118,1246464.3,1250259,"1, 8","1250259, 1250546","No strategy, just guess work",4,yes,no,64,female,yes,NA,no,NA,Food
i636fcg5x0fy,2025-04-24,testing,NA,79,Bell pepper,Bild14.png,0,3,6,3603.999999999767,112,1251714.3,1254299,3,1254299,"No strategy, just guess work",4,yes,no,64,female,yes,NA,no,NA,Food
i636fcg5x0fy,2025-04-24,testing,NA,80,Gouda cheese,Bild41.png,0,54,0,7099.600000000093,104,1255330.9,1261083,"5, 4","1261083, 1261306","No strategy, just guess work",4,yes,no,64,female,yes,NA,no,NA,Food
i636fcg5x0fy,2025-04-24,testing,NA,81,Raspberry jam,Bild56.png,0,77,52,9078.287999999942,118,1262431.112,1270283,"7, 7","1270283, 1270490","No strategy, just guess work",4,yes,no,64,female,yes,NA,no,NA,Food
i636fcg5x0fy,2025-04-24,testing,NA,82,Pork,Bild52.png,0,3,0,8429.5,111,1271514,1278515,3,1278515,"No strategy, just guess work",4,yes,no,64,female,yes,NA,no,NA,Food
mcvs1zmkool3,2025-04-24,testing,NA,0,Oat flakes,Bild5.png,1,60,60,5020.671999998507,111,616098.228,619633,"6, 0","619633, 620393","I tried to stay consistent with similar types of food, but I don't feel very confident in my success at this.",4,yes,no,48,male,yes,NA,no,NA,Food
mcvs1zmkool3,2025-04-24,testing,NA,1,Butter,Bild42.png,0,75,1,11315.499999998488,75,621131.4,631161,"7, 5","631161, 631473","I tried to stay consistent with similar types of food, but I don't feel very confident in my success at this.",4,yes,no,48,male,yes,NA,no,NA,Food
mcvs1zmkool3,2025-04-24,testing,NA,2,Rice cake,Bild79.png,1,77,77,1828.745999998529,157,632448.154,633601,"7, 7","633601, 633792","I tried to stay consistent with similar types of food, but I don't feel very confident in my success at this.",4,yes,no,48,male,yes,NA,no,NA,Food
mcvs1zmkool3,2025-04-24,testing,NA,3,Spaghetti,Bild1.png,1,28,28,2092.89999999851,119,634298,635577,"2, 8","635577, 635881","I tried to stay consistent with similar types of food, but I don't feel very confident in my success at this.",4,yes,no,48,male,yes,NA,no,NA,Food
mcvs1zmkool3,2025-04-24,testing,NA,4,Chocolate cake,Bild66.png,1,50,50,2256.69999999553,135,636398,637401,"5, 0","637401, 638233","I tried to stay consistent with similar types of food, but I don't feel very confident in my success at this.",4,yes,no,48,male,yes,NA,no,NA,Food
mcvs1zmkool3,2025-04-24,testing,NA,5,Bulgur,Bild10.png,0,25,24,11430.199999998556,165,638664.7,649329,"2, 5","649329, 649553","I tried to stay consistent with similar types of food, but I don't feel very confident in my success at this.",4,yes,no,48,male,yes,NA,no,NA,Food
mcvs1zmkool3,2025-04-24,testing,NA,6,Tuna (canned),Bild49.png,0,5,0,6142.299999998533,171,650114.6,655417,5,655417,"I tried to stay consistent with similar types of food, but I don't feel very confident in my success at this.",4,yes,no,48,male,yes,NA,no,NA,Food
mcvs1zmkool3,2025-04-24,testing,NA,7,Potatoes,Bild12.png,0,80,19,7722.299999998533,171,656264.6,661202,"8, 0","661202, 661641","I tried to stay consistent with similar types of food, but I don't feel very confident in my success at this.",4,yes,no,48,male,yes,NA,no,NA,Food
mcvs1zmkool3,2025-04-24,testing,NA,8,Gouda cheese,Bild41.png,0,75,0,7853.099999998463,194,663997.8,671041,"7, 5","671041, 671257","I tried to stay consistent with similar types of food, but I don't feel very confident in my success at this.",4,yes,no,48,male,yes,NA,no,NA,Food
mcvs1zmkool3,2025-04-24,testing,NA,9,Corn,Bild16.png,1,11,11,2978.399999996996,135,671864.4,673793,"1, 1","673793, 674033","I tried to stay consistent with similar types of food, but I don't feel very confident in my success at this.",4,yes,no,48,male,yes,NA,no,NA,Food
mcvs1zmkool3,2025-04-24,testing,NA,10,Feta,Bild43.png,0,62,1,6089.199999999953,193,674847.8,679753,"6, 2","679753, 680208","I tried to stay consistent with similar types of food, but I don't feel very confident in my success at this.",4,yes,no,48,male,yes,NA,no,NA,Food
mcvs1zmkool3,2025-04-24,testing,NA,11,Banana,Bild26.png,0,5,20,6549.199999998556,171,680947.7,687017,5,687017,"I tried to stay consistent with similar types of food, but I don't feel very confident in my success at this.",4,yes,no,48,male,yes,NA,no,NA,Food
mcvs1zmkool3,2025-04-24,testing,NA,12,Mandarin,Bild31.png,0,3,10,4098.973999997019,163,687497.826,691057,3,691057,"I tried to stay consistent with similar types of food, but I don't feel very confident in my success at this.",4,yes,no,48,male,yes,NA,no,NA,Food
mcvs1zmkool3,2025-04-24,testing,NA,13,Kinder chocolate bar,Bild77.png,0,77,54,9114.499999996971,179,691614.3,699873,"7, 7","699873, 700169","I tried to stay consistent with similar types of food, but I don't feel very confident in my success at this.",4,yes,no,48,male,yes,NA,no,NA,Food
mcvs1zmkool3,2025-04-24,testing,NA,14,Pear,Bild36.png,0,3,12,4091.667999997037,149,700731.132,704217,3,704217,"I tried to stay consistent with similar types of food, but I don't feel very confident in my success at this.",4,yes,no,48,male,yes,NA,no,NA,Food
mcvs1zmkool3,2025-04-24,testing,NA,15,Bread,Bild7.png,0,75,43,7061.79999999702,187,704831,711209,"7, 5","711209, 711441","I tried to stay consistent with similar types of food, but I don't feel very confident in my success at this.",4,yes,no,48,male,yes,NA,no,NA,Food
mcvs1zmkool3,2025-04-24,testing,NA,16,Carrots,Bild15.png,0,2,7,4752.899999995483,171,711914.3,716137,2,716137,"I tried to stay consistent with similar types of food, but I don't feel very confident in my success at this.",4,yes,no,48,male,yes,NA,no,NA,Food
mcvs1zmkool3,2025-04-24,testing,NA,17,Walnuts,Bild70.png,1,4,4,1957.999999998487,179,716680.9,718193,4,718193,"I tried to stay consistent with similar types of food, but I don't feel very confident in my success at this.",4,yes,no,48,male,yes,NA,no,NA,Food
mcvs1zmkool3,2025-04-24,testing,NA,18,Fried egg,Bild17.png,0,73,2,7292.699999998556,179,718664.2,725129,"7, 3","725129, 725344","I tried to stay consistent with similar types of food, but I don't feel very confident in my success at this.",4,yes,no,48,male,yes,NA,no,NA,Food
mcvs1zmkool3,2025-04-24,testing,NA,19,Salami,Bild46.png,0,33,1,15442.699999997045,155,725964.1,740713,"3, 3","740713, 740912","I tried to stay consistent with similar types of food, but I don't feel very confident in my success at this.",4,yes,no,48,male,yes,NA,no,NA,Food
mcvs1zmkool3,2025-04-24,testing,NA,20,Dextrose,Bild80.png,0,1,91,6440.199999998556,177,741430.7,747337,1,747337,"I tried to stay consistent with similar types of food, but I don't feel very confident in my success at this.",4,yes,no,48,male,yes,NA,no,NA,Food
mcvs1zmkool3,2025-04-24,testing,NA,21,Broccoli,Bild18.png,0,1,2,2221.299999995506,163,747897.4,749649,1,749649,"I tried to stay consistent with similar types of food, but I don't feel very confident in my success at this.",4,yes,no,48,male,yes,NA,no,NA,Food
mcvs1zmkool3,2025-04-24,testing,NA,22,Rigatoni,Bild3.png,0,28,34,8160.299999998533,209,750130.6,757441,"2, 8","757441, 757712","I tried to stay consistent with similar types of food, but I don't feel very confident in my success at this.",4,yes,no,48,male,yes,NA,no,NA,Food
mcvs1zmkool3,2025-04-24,testing,NA,23,French fries,Bild76.png,0,68,24,5691.599999997066,165,758297.2,763033,"6, 8","763033, 763240","I tried to stay consistent with similar types of food, but I don't feel very confident in my success at this.",4,yes,no,48,male,yes,NA,no,NA,Food
mcvs1zmkool3,2025-04-24,testing,NA,24,Radishes,Bild73.png,0,2,2,3701.899999995483,132,763997.3,767176,2,767176,"I tried to stay consistent with similar types of food, but I don't feel very confident in my success at this.",4,yes,no,48,male,yes,NA,no,NA,Food
mcvs1zmkool3,2025-04-24,testing,NA,25,Chocolate,Bild61.png,0,55,55,6716.999999998487,169,767713.9,773721,"5, 5","773721, 773897","I tried to stay consistent with similar types of food, but I don't feel very confident in my success at this.",4,yes,no,48,male,yes,NA,no,NA,Food
mcvs1zmkool3,2025-04-24,testing,NA,26,Mozzarella,Bild44.png,0,70,1,9018.099999997066,163,774447.2,782409,"7, 0","782409, 782913","I tried to stay consistent with similar types of food, but I don't feel very confident in my success at this.",4,yes,no,48,male,yes,NA,no,NA,Food
mcvs1zmkool3,2025-04-24,testing,NA,27,Shrimps,Bild50.png,0,3,3,8352.499999998487,194,783480.4,791249,3,791249,"I tried to stay consistent with similar types of food, but I don't feel very confident in my success at this.",4,yes,no,48,male,yes,NA,no,NA,Food
mcvs1zmkool3,2025-04-24,testing,NA,28,Cauliflower,Bild21.png,0,1,2,2489.699999997043,187,791847.1,793666,1,793666,"I tried to stay consistent with similar types of food, but I don't feel very confident in my success at this.",4,yes,no,48,male,yes,NA,no,NA,Food
mcvs1zmkool3,2025-04-24,testing,NA,29,Gummy bears,Bild59.png,1,77,77,3511.099999998463,231,794363.8,797137,"7, 7","797137, 797353","I tried to stay consistent with similar types of food, but I don't feel very confident in my success at this.",4,yes,no,48,male,yes,NA,no,NA,Food
mcvs1zmkool3,2025-04-24,testing,NA,30,Yogurt,Bild39.png,0,16,6,8022.399999996996,147,797880.4,804753,"1, 6","804753, 805393","I tried to stay consistent with similar types of food, but I don't feel very confident in my success at this.",4,yes,no,48,male,yes,NA,no,NA,Food
mcvs1zmkool3,2025-04-24,testing,NA,31,Orange,Bild30.png,0,4,8,3357.199999998556,127,805913.7,808817,4,808817,"I tried to stay consistent with similar types of food, but I don't feel very confident in my success at this.",4,yes,no,48,male,yes,NA,no,NA,Food
mcvs1zmkool3,2025-04-24,testing,NA,32,Vienna sausages,Bild48.png,0,30,1,7966.499999996973,155,809280.3,816385,"3, 0","816385, 816681","I tried to stay consistent with similar types of food, but I don't feel very confident in my success at this.",4,yes,no,48,male,yes,NA,no,NA,Food
mcvs1zmkool3,2025-04-24,testing,NA,33,Eggplant,Bild78.png,0,3,3,9789.199999997045,148,817263.6,826666,3,826666,"I tried to stay consistent with similar types of food, but I don't feel very confident in my success at this.",4,yes,no,48,male,yes,NA,no,NA,Food
mcvs1zmkool3,2025-04-24,testing,NA,34,Grapes,Bild38.png,0,8,15,4265.19999999553,175,827063.5,830785,8,830785,"I tried to stay consistent with similar types of food, but I don't feel very confident in my success at this.",4,yes,no,48,male,yes,NA,no,NA,Food
mcvs1zmkool3,2025-04-24,testing,NA,35,Lentils,Bild24.png,0,5,25,5206.716000000015,195,831330.284,836065,5,836065,"I tried to stay consistent with similar types of food, but I don't feel very confident in my success at this.",4,yes,no,48,male,yes,NA,no,NA,Food
mcvs1zmkool3,2025-04-24,testing,NA,36,Chickpeas,Bild72.png,1,11,16,10881.999999996971,179,836546.8,846529,"1, 1","846529, 846753","I tried to stay consistent with similar types of food, but I don't feel very confident in my success at this.",4,yes,no,48,male,yes,NA,no,NA,Food
mcvs1zmkool3,2025-04-24,testing,NA,37,Cheesecake,Bild67.png,0,50,33,5126.687999997055,185,847430.112,851705,"5, 0","851705, 852057","I tried to stay consistent with similar types of food, but I don't feel very confident in my success at this.",4,yes,no,48,male,yes,NA,no,NA,Food
mcvs1zmkool3,2025-04-24,testing,NA,38,Salmon,Bild51.png,0,9,0,3980.699999997043,157,852580.1,855849,9,855849,"I tried to stay consistent with similar types of food, but I don't feel very confident in my success at this.",4,yes,no,48,male,yes,NA,no,NA,Food
mcvs1zmkool3,2025-04-24,testing,NA,39,Mushrooms,Bild22.png,1,1,1,1456.89999999851,185,856580,857633,1,857633,"I tried to stay consistent with similar types of food, but I don't feel very confident in my success at this.",4,yes,no,48,male,yes,NA,no,NA,Food
mcvs1zmkool3,2025-04-24,testing,NA,40,Rice,Bild2.png,0,75,28,10073.499999996971,165,858063.3,863705,"7, 7, NA, 5","863705, 863953, 866961, 867689","I tried to stay consistent with similar types of food, but I don't feel very confident in my success at this.",4,yes,no,48,male,yes,NA,no,NA,Food
mcvs1zmkool3,2025-04-24,testing,NA,41,Chicken,Bild53.png,1,2,2,1826.29999999702,149,868146.5,869609,2,869609,"I tried to stay consistent with similar types of food, but I don't feel very confident in my success at this.",4,yes,no,48,male,yes,NA,no,NA,Food
mcvs1zmkool3,2025-04-24,testing,NA,42,Nutella,Bild54.png,1,77,57,2504.799999995506,179,869979.9,871665,"7, 7","871665, 871953","I tried to stay consistent with similar types of food, but I don't feel very confident in my success at this.",4,yes,no,48,male,yes,NA,no,NA,Food
mcvs1zmkool3,2025-04-24,testing,NA,43,Bell pepper,Bild14.png,0,2,6,3187.599999997066,171,872513.2,875265,2,875265,"I tried to stay consistent with similar types of food, but I don't feel very confident in my success at this.",4,yes,no,48,male,yes,NA,no,NA,Food
mcvs1zmkool3,2025-04-24,testing,NA,44,Wrap,Bild11.png,0,65,52,5811.499999995576,163,875713.2,880785,"6, 5","880785, 881041","I tried to stay consistent with similar types of food, but I don't feel very confident in my success at this.",4,yes,no,48,male,yes,NA,no,NA,Food
mcvs1zmkool3,2025-04-24,testing,NA,45,Watermelon,Bild28.png,0,3,8,6996.29999999702,171,881546.5,884737,"1, NA, 3","884737, 887545, 888121","I tried to stay consistent with similar types of food, but I don't feel very confident in my success at this.",4,yes,no,48,male,yes,NA,no,NA,Food
mcvs1zmkool3,2025-04-24,testing,NA,47,Whipped cream,Bild71.png,0,80,3,5420.39999999851,179,892246.5,896497,"8, 0","896497, 896881","I tried to stay consistent with similar types of food, but I don't feel very confident in my success at this.",4,yes,no,48,male,yes,NA,no,NA,Food
mcvs1zmkool3,2025-04-24,testing,NA,48,Pineapple,Bild33.png,0,15,12,5698.29999999702,209,897696.5,902665,"1, 5","902665, 902872","I tried to stay consistent with similar types of food, but I don't feel very confident in my success at this.",4,yes,no,48,male,yes,NA,no,NA,Food
mcvs1zmkool3,2025-04-24,testing,NA,49,Croissant,Bild8.png,0,69,47,7606.141999995569,155,903396.558,910121,"6, 9","910121, 910392","I tried to stay consistent with similar types of food, but I don't feel very confident in my success at this.",4,yes,no,48,male,yes,NA,no,NA,Food
mcvs1zmkool3,2025-04-24,testing,NA,50,Raspberry,Bild35.png,0,8,5,8641.199999998556,165,911029.7,919073,8,919073,"I tried to stay consistent with similar types of food, but I don't feel very confident in my success at this.",4,yes,no,48,male,yes,NA,no,NA,Food
mcvs1zmkool3,2025-04-24,testing,NA,51,Peas,Bild23.png,0,5,9,2915.199999997043,165,919679.6,922105,5,922105,"I tried to stay consistent with similar types of food, but I don't feel very confident in my success at this.",4,yes,no,48,male,yes,NA,no,NA,Food
mcvs1zmkool3,2025-04-24,testing,NA,52,White toast,Bild9.png,0,70,47,6937.899999996996,186,922612.9,928433,"7, 0","928433, 928761","I tried to stay consistent with similar types of food, but I don't feel very confident in my success at this.",4,yes,no,48,male,yes,NA,no,NA,Food
mcvs1zmkool3,2025-04-24,testing,NA,53,Pretzel sticks,Bild64.png,0,70,72,3299.39999999851,185,929579.5,932089,"7, 0","932089, 932368","I tried to stay consistent with similar types of food, but I don't feel very confident in my success at this.",4,yes,no,48,male,yes,NA,no,NA,Food
mcvs1zmkool3,2025-04-24,testing,NA,54,Ice cream,Bild60.png,0,80,19,3792.599999997066,173,932896.2,935889,"8, 0","935889, 936105","I tried to stay consistent with similar types of food, but I don't feel very confident in my success at this.",4,yes,no,48,male,yes,NA,no,NA,Food
mcvs1zmkool3,2025-04-24,testing,NA,55,Peanuts,Bild69.png,0,18,11,4422.699999997043,149,936696.1,939609,"1, 8","939609, 940521","I tried to stay consistent with similar types of food, but I don't feel very confident in my success at this.",4,yes,no,48,male,yes,NA,no,NA,Food
mcvs1zmkool3,2025-04-24,testing,NA,56,Bread roll,Bild4.png,0,66,44,14315.39999999851,149,941129.5,954769,"6, 6","954769, 954985","I tried to stay consistent with similar types of food, but I don't feel very confident in my success at this.",4,yes,no,48,male,yes,NA,no,NA,Food
mcvs1zmkool3,2025-04-24,testing,NA,57,Peanut butter,Bild58.png,0,77,17,5412.846000001533,187,955446.254,959889,"7, 7","959889, 960121","I tried to stay consistent with similar types of food, but I don't feel very confident in my success at this.",4,yes,no,48,male,yes,NA,no,NA,Food
mcvs1zmkool3,2025-04-24,testing,NA,58,Raspberry jam,Bild56.png,0,60,52,6433.700000001467,201,960879.4,966369,"6, 0","966369, 966664","I tried to stay consistent with similar types of food, but I don't feel very confident in my success at this.",4,yes,no,48,male,yes,NA,no,NA,Food
mcvs1zmkool3,2025-04-24,testing,NA,59,Beans,Bild25.png,0,5,3,3409.699999999953,201,967329.3,970113,5,970113,"I tried to stay consistent with similar types of food, but I don't feel very confident in my success at this.",4,yes,no,48,male,yes,NA,no,NA,Food
mcvs1zmkool3,2025-04-24,testing,NA,60,Cherry jam,Bild55.png,0,66,55,7063,179,970746,974337,"6, 6","974337, 974521","I tried to stay consistent with similar types of food, but I don't feel very confident in my success at this.",4,yes,no,48,male,yes,NA,no,NA,Food
mcvs1zmkool3,2025-04-24,testing,NA,61,Cookies,Bild68.png,0,80,58,4008.199999997043,173,977812.6,980985,"8, 0","980985, 981232","I tried to stay consistent with similar types of food, but I don't feel very confident in my success at this.",4,yes,no,48,male,yes,NA,no,NA,Food
mcvs1zmkool3,2025-04-24,testing,NA,62,Apricot,Bild37.png,0,12,9,3701.699999998556,191,981829.2,984713,"1, 2","984713, 984929","I tried to stay consistent with similar types of food, but I don't feel very confident in my success at this.",4,yes,no,48,male,yes,NA,no,NA,Food
mcvs1zmkool3,2025-04-24,testing,NA,63,Chips,Bild63.png,0,70,51,5104.999999998487,209,985545.9,989809,"7, 0","989809, 990065","I tried to stay consistent with similar types of food, but I don't feel very confident in my success at this.",4,yes,no,48,male,yes,NA,no,NA,Food
mcvs1zmkool3,2025-04-24,testing,NA,64,Apple turnover,Bild65.png,1,34,34,3048.199999997043,269,990662.6,992809,"3, 4","992809, 992985","I tried to stay consistent with similar types of food, but I don't feel very confident in my success at this.",4,yes,no,48,male,yes,NA,no,NA,Food
mcvs1zmkool3,2025-04-24,testing,NA,65,Couscous,Bild6.png,0,68,29,9008.361999999965,111,993712.638,1001458,"6, 8","1001458, 1001937","I tried to stay consistent with similar types of food, but I don't feel very confident in my success at this.",4,yes,no,48,male,yes,NA,no,NA,Food
mcvs1zmkool3,2025-04-24,testing,NA,66,Mango,Bild32.png,0,11,13,5488.099999995553,148,1002729.1,1007449,"1, 1","1007449, 1007705","I tried to stay consistent with similar types of food, but I don't feel very confident in my success at this.",4,yes,no,48,male,yes,NA,no,NA,Food
mcvs1zmkool3,2025-04-24,testing,NA,67,Apple,Bild27.png,0,1,14,2235.799999998533,103,1008229.1,1010105,1,1010105,"I tried to stay consistent with similar types of food, but I don't feel very confident in my success at this.",4,yes,no,48,male,yes,NA,no,NA,Food
mcvs1zmkool3,2025-04-24,testing,NA,68,Kidney beans,Bild29.png,0,6,13,8443.89999999851,126,1010479,1015849,"3, NA, 6","1015849, 1017457, 1018137","I tried to stay consistent with similar types of food, but I don't feel very confident in my success at this.",4,yes,no,48,male,yes,NA,no,NA,Food
mcvs1zmkool3,2025-04-24,testing,NA,69,Vanilla pudding,Bild62.png,0,65,14,7273.89999999851,125,1018929,1024977,"6, 5","1024977, 1025321","I tried to stay consistent with similar types of food, but I don't feel very confident in my success at this.",4,yes,no,48,male,yes,NA,no,NA,Food
mcvs1zmkool3,2025-04-24,testing,NA,70,Tomatoes,Bild19.png,0,2,3,3310.499999996973,140,1026212.3,1028929,2,1028929,"I tried to stay consistent with similar types of food, but I don't feel very confident in my success at this.",4,yes,no,48,male,yes,NA,no,NA,Food
mcvs1zmkool3,2025-04-24,testing,NA,71,Fish sticks,Bild74.png,0,59,18,8563.79999999702,143,1029529,1037114,"5, 9","1037114, 1037377","I tried to stay consistent with similar types of food, but I don't feel very confident in my success at this.",4,yes,no,48,male,yes,NA,no,NA,Food
mcvs1zmkool3,2025-04-24,testing,NA,72,Honey,Bild57.png,0,75,81,6945.271999998484,214,1038095.628,1044065,"7, 5","1044065, 1044304","I tried to stay consistent with similar types of food, but I don't feel very confident in my success at this.",4,yes,no,48,male,yes,NA,no,NA,Food
mcvs1zmkool3,2025-04-24,testing,NA,73,Cucumber,Bild13.png,0,2,2,3052.599999997066,51,1045062.2,1047561,2,1047561,"I tried to stay consistent with similar types of food, but I don't feel very confident in my success at this.",4,yes,no,48,male,yes,NA,no,NA,Food
mcvs1zmkool3,2025-04-24,testing,NA,74,Pork,Bild52.png,0,4,0,5277.29999999702,155,1048145.5,1052905,4,1052905,"I tried to stay consistent with similar types of food, but I don't feel very confident in my success at this.",4,yes,no,48,male,yes,NA,no,NA,Food
mcvs1zmkool3,2025-04-24,testing,NA,76,Dried ham,Bild47.png,0,15,1,8593.299999995623,179,1056045.4,1063625,"1, 5","1063625, 1063977","I tried to stay consistent with similar types of food, but I don't feel very confident in my success at this.",4,yes,no,48,male,yes,NA,no,NA,Food
mcvs1zmkool3,2025-04-24,testing,NA,77,Iceberg lettuce,Bild20.png,0,1,2,2346.799999998417,135,1064662.1,1066513,1,1066513,"I tried to stay consistent with similar types of food, but I don't feel very confident in my success at this.",4,yes,no,48,male,yes,NA,no,NA,Food
mcvs1zmkool3,2025-04-24,testing,NA,78,Curd cheese,Bild40.png,0,63,4,14112.79999999702,157,1067012,1080233,"6, 3","1080233, 1080480","I tried to stay consistent with similar types of food, but I don't feel very confident in my success at this.",4,yes,no,48,male,yes,NA,no,NA,Food
mcvs1zmkool3,2025-04-24,testing,NA,79,Cream cheese,Bild45.png,0,68,3,6913.399999995483,133,1081145.3,1087113,"6, 8","1087113, 1087225","I tried to stay consistent with similar types of food, but I don't feel very confident in my success at this.",4,yes,no,48,male,yes,NA,no,NA,Food
mcvs1zmkool3,2025-04-24,testing,NA,80,Strawberry,Bild34.png,0,5,6,3597.200000001583,180,1088061.9,1090753,5,1090753,"I tried to stay consistent with similar types of food, but I don't feel very confident in my success at this.",4,yes,no,48,male,yes,NA,no,NA,Food
mcvs1zmkool3,2025-04-24,testing,NA,82,Vegetarian salami,Bild75.png,0,36,9,7663.599999997066,179,1094295.2,1100665,"3, 6","1100665, 1101289","I tried to stay consistent with similar types of food, but I don't feel very confident in my success at this.",4,yes,no,48,male,yes,NA,no,NA,Food
s1u4m0v2txtl,2025-04-24,testing,NA,0,Peanuts,Bild69.png,0,32,11,8129,2,713914,716072,"3, 2","716072, 720225",I measured all beans like chick peas and lentils etc around 15g mark and sweet things with a lot of sugar around 50g based on the training of lentils and chocolate cake.,4,yes,no,43,female,yes,NA,no,NA,Food
s1u4m0v2txtl,2025-04-24,testing,NA,1,Banana,Bild26.png,0,20,20,12253,2,722174,725613,"1, NA, 2, 0","725613, 732182, 732658, 733205",I measured all beans like chick peas and lentils etc around 15g mark and sweet things with a lot of sugar around 50g based on the training of lentils and chocolate cake.,4,yes,no,43,female,yes,NA,no,NA,Food
s1u4m0v2txtl,2025-04-24,testing,NA,2,Mushrooms,Bild22.png,1,1,1,3102,3,734569,736097,1,736097,I measured all beans like chick peas and lentils etc around 15g mark and sweet things with a lot of sugar around 50g based on the training of lentils and chocolate cake.,4,yes,no,43,female,yes,NA,no,NA,Food
s1u4m0v2txtl,2025-04-24,testing,NA,3,Dextrose,Bild80.png,0,4,91,5269,3,737785,741709,4,741709,I measured all beans like chick peas and lentils etc around 15g mark and sweet things with a lot of sugar around 50g based on the training of lentils and chocolate cake.,4,yes,no,43,female,yes,NA,no,NA,Food
s1u4m0v2txtl,2025-04-24,testing,NA,4,Raspberry,Bild35.png,0,8,5,5048.000000000116,2,743185,746902,8,746902,I measured all beans like chick peas and lentils etc around 15g mark and sweet things with a lot of sugar around 50g based on the training of lentils and chocolate cake.,4,yes,no,43,female,yes,NA,no,NA,Food
s1u4m0v2txtl,2025-04-24,testing,NA,5,Chips,Bild63.png,0,37,51,4738,2,748352,750995,"3, 7","750995, 751286",I measured all beans like chick peas and lentils etc around 15g mark and sweet things with a lot of sugar around 50g based on the training of lentils and chocolate cake.,4,yes,no,43,female,yes,NA,no,NA,Food
s1u4m0v2txtl,2025-04-24,testing,NA,6,Kinder chocolate bar,Bild77.png,0,55,54,3890,2,753209,754626,"5, 5","754626, 755621",I measured all beans like chick peas and lentils etc around 15g mark and sweet things with a lot of sugar around 50g based on the training of lentils and chocolate cake.,4,yes,no,43,female,yes,NA,no,NA,Food
s1u4m0v2txtl,2025-04-24,testing,NA,7,Pineapple,Bild33.png,0,16,12,4891,2,757244,760538,"1, 6","760538, 760783",I measured all beans like chick peas and lentils etc around 15g mark and sweet things with a lot of sugar around 50g based on the training of lentils and chocolate cake.,4,yes,no,43,female,yes,NA,no,NA,Food
s1u4m0v2txtl,2025-04-24,testing,NA,8,French fries,Bild76.png,0,37,24,4475,2,762245,765207,"3, 7","765207, 765504",I measured all beans like chick peas and lentils etc around 15g mark and sweet things with a lot of sugar around 50g based on the training of lentils and chocolate cake.,4,yes,no,43,female,yes,NA,no,NA,Food
s1u4m0v2txtl,2025-04-24,testing,NA,9,Rice,Bild2.png,0,37,28,5222,4,766851,770504,"3, 7","770504, 770767",I measured all beans like chick peas and lentils etc around 15g mark and sweet things with a lot of sugar around 50g based on the training of lentils and chocolate cake.,4,yes,no,43,female,yes,NA,no,NA,Food
s1u4m0v2txtl,2025-04-24,testing,NA,11,Pear,Bild36.png,0,21,12,12085,2,775901,785682,"2, 1","785682, 786661",I measured all beans like chick peas and lentils etc around 15g mark and sweet things with a lot of sugar around 50g based on the training of lentils and chocolate cake.,4,yes,no,43,female,yes,NA,no,NA,Food
s1u4m0v2txtl,2025-04-24,testing,NA,12,Honey,Bild57.png,0,45,81,6056,2,788096,792561,"4, 5","792561, 792713",I measured all beans like chick peas and lentils etc around 15g mark and sweet things with a lot of sugar around 50g based on the training of lentils and chocolate cake.,4,yes,no,43,female,yes,NA,no,NA,Food
s1u4m0v2txtl,2025-04-24,testing,NA,13,Walnuts,Bild70.png,1,4,4,3294,3,794254,795949,4,795949,I measured all beans like chick peas and lentils etc around 15g mark and sweet things with a lot of sugar around 50g based on the training of lentils and chocolate cake.,4,yes,no,43,female,yes,NA,no,NA,Food
s1u4m0v2txtl,2025-04-24,testing,NA,14,Pork,Bild52.png,0,3,0,4084,3,797662,799673,3,799673,I measured all beans like chick peas and lentils etc around 15g mark and sweet things with a lot of sugar around 50g based on the training of lentils and chocolate cake.,4,yes,no,43,female,yes,NA,no,NA,Food
s1u4m0v2txtl,2025-04-24,testing,NA,15,Apple,Bild27.png,0,15,14,5224,2,801859,804577,"1, 5","804577, 805511",I measured all beans like chick peas and lentils etc around 15g mark and sweet things with a lot of sugar around 50g based on the training of lentils and chocolate cake.,4,yes,no,43,female,yes,NA,no,NA,Food
s1u4m0v2txtl,2025-04-24,testing,NA,16,Bread,Bild7.png,0,57,43,5636,1,807233,810644,"5, 7","810644, 811486",I measured all beans like chick peas and lentils etc around 15g mark and sweet things with a lot of sugar around 50g based on the training of lentils and chocolate cake.,4,yes,no,43,female,yes,NA,no,NA,Food
s1u4m0v2txtl,2025-04-24,testing,NA,17,Croissant,Bild8.png,0,60,47,6107,1,813009,815586,"5, 8, NA, NA, 6, 0","815586, 816131, 817782, 817881, 818199, 818557",I measured all beans like chick peas and lentils etc around 15g mark and sweet things with a lot of sugar around 50g based on the training of lentils and chocolate cake.,4,yes,no,43,female,yes,NA,no,NA,Food
s1u4m0v2txtl,2025-04-24,testing,NA,18,Cheesecake,Bild67.png,0,55,33,4730,2,819237,822544,"5, 5","822544, 822631",I measured all beans like chick peas and lentils etc around 15g mark and sweet things with a lot of sugar around 50g based on the training of lentils and chocolate cake.,4,yes,no,43,female,yes,NA,no,NA,Food
s1u4m0v2txtl,2025-04-24,testing,NA,19,Bell pepper,Bild14.png,0,13,6,4195,3,824111,825647,"1, 3","825647, 826974",I measured all beans like chick peas and lentils etc around 15g mark and sweet things with a lot of sugar around 50g based on the training of lentils and chocolate cake.,4,yes,no,43,female,yes,NA,no,NA,Food
s1u4m0v2txtl,2025-04-24,testing,NA,20,Eggplant,Bild78.png,0,17,3,6033,2,828435,829698,"1, 2, NA, NA, 1, 7","829698, 830710, 832714, 832775, 833494, 834180",I measured all beans like chick peas and lentils etc around 15g mark and sweet things with a lot of sugar around 50g based on the training of lentils and chocolate cake.,4,yes,no,43,female,yes,NA,no,NA,Food
s1u4m0v2txtl,2025-04-24,testing,NA,21,Oat flakes,Bild5.png,1,60,60,5187,2,834576,836225,"7, 7, NA, NA, 6, 0","836225, 836437, 838507, 838544, 838849, 839167",I measured all beans like chick peas and lentils etc around 15g mark and sweet things with a lot of sugar around 50g based on the training of lentils and chocolate cake.,4,yes,no,43,female,yes,NA,no,NA,Food
s1u4m0v2txtl,2025-04-24,testing,NA,22,Chocolate,Bild61.png,0,55,55,6155,2,839923,841449,"5, 0, NA, 5","841449, 841763, 845106, 845480",I measured all beans like chick peas and lentils etc around 15g mark and sweet things with a lot of sugar around 50g based on the training of lentils and chocolate cake.,4,yes,no,43,female,yes,NA,no,NA,Food
s1u4m0v2txtl,2025-04-24,testing,NA,23,Wrap,Bild11.png,0,38,52,4496,2,846205,848983,"3, 8","848983, 849244",I measured all beans like chick peas and lentils etc around 15g mark and sweet things with a lot of sugar around 50g based on the training of lentils and chocolate cake.,4,yes,no,43,female,yes,NA,no,NA,Food
s1u4m0v2txtl,2025-04-24,testing,NA,24,Rigatoni,Bild3.png,0,37,34,5208,2,850834,854368,"3, 7","854368, 854709",I measured all beans like chick peas and lentils etc around 15g mark and sweet things with a lot of sugar around 50g based on the training of lentils and chocolate cake.,4,yes,no,43,female,yes,NA,no,NA,Food
s1u4m0v2txtl,2025-04-24,testing,NA,25,Grapes,Bild38.png,0,15,15,3210,1,856165,857649,"1, 5","857649, 858086",I measured all beans like chick peas and lentils etc around 15g mark and sweet things with a lot of sugar around 50g based on the training of lentils and chocolate cake.,4,yes,no,43,female,yes,NA,no,NA,Food
s1u4m0v2txtl,2025-04-24,testing,NA,26,Salmon,Bild51.png,0,5,0,4740,2,859496,862884,5,862884,I measured all beans like chick peas and lentils etc around 15g mark and sweet things with a lot of sugar around 50g based on the training of lentils and chocolate cake.,4,yes,no,43,female,yes,NA,no,NA,Food
s1u4m0v2txtl,2025-04-24,testing,NA,27,Fried egg,Bild17.png,0,8,2,5279,2,864355,868362,8,868362,I measured all beans like chick peas and lentils etc around 15g mark and sweet things with a lot of sugar around 50g based on the training of lentils and chocolate cake.,4,yes,no,43,female,yes,NA,no,NA,Food
s1u4m0v2txtl,2025-04-24,testing,NA,28,Corn,Bild16.png,1,14,11,3291,2,869743,871107,"1, 4","871107, 871649",I measured all beans like chick peas and lentils etc around 15g mark and sweet things with a lot of sugar around 50g based on the training of lentils and chocolate cake.,4,yes,no,43,female,yes,NA,no,NA,Food
s1u4m0v2txtl,2025-04-24,testing,NA,29,Carrots,Bild15.png,0,12,7,5038,1,873134,876053,"1, 2","876053, 876361",I measured all beans like chick peas and lentils etc around 15g mark and sweet things with a lot of sugar around 50g based on the training of lentils and chocolate cake.,4,yes,no,43,female,yes,NA,no,NA,Food
s1u4m0v2txtl,2025-04-24,testing,NA,30,Apple turnover,Bild65.png,1,40,34,5040.000000000116,1,878313,879859,"3, 8, NA, NA, 4, 0","879859, 880135, 881256, 881418, 882346, 882702",I measured all beans like chick peas and lentils etc around 15g mark and sweet things with a lot of sugar around 50g based on the training of lentils and chocolate cake.,4,yes,no,43,female,yes,NA,no,NA,Food
s1u4m0v2txtl,2025-04-24,testing,NA,31,Dried ham,Bild47.png,0,8,1,5227,1,883465,887465,8,887465,I measured all beans like chick peas and lentils etc around 15g mark and sweet things with a lot of sugar around 50g based on the training of lentils and chocolate cake.,4,yes,no,43,female,yes,NA,no,NA,Food
s1u4m0v2txtl,2025-04-24,testing,NA,32,Mango,Bild32.png,0,15,13,3502,3,888810,890359,"1, 5","890359, 890823",I measured all beans like chick peas and lentils etc around 15g mark and sweet things with a lot of sugar around 50g based on the training of lentils and chocolate cake.,4,yes,no,43,female,yes,NA,no,NA,Food
s1u4m0v2txtl,2025-04-24,testing,NA,33,Shrimps,Bild50.png,0,4,3,4187,2,892448,895346,4,895346,I measured all beans like chick peas and lentils etc around 15g mark and sweet things with a lot of sugar around 50g based on the training of lentils and chocolate cake.,4,yes,no,43,female,yes,NA,no,NA,Food
s1u4m0v2txtl,2025-04-24,testing,NA,34,Potatoes,Bild12.png,0,40,19,5588,3,896750,900450,"4, 0","900450, 901011",I measured all beans like chick peas and lentils etc around 15g mark and sweet things with a lot of sugar around 50g based on the training of lentils and chocolate cake.,4,yes,no,43,female,yes,NA,no,NA,Food
s1u4m0v2txtl,2025-04-24,testing,NA,35,Yogurt,Bild39.png,0,25,6,4471,2,902474,905047,"2, 5","905047, 905513",I measured all beans like chick peas and lentils etc around 15g mark and sweet things with a lot of sugar around 50g based on the training of lentils and chocolate cake.,4,yes,no,43,female,yes,NA,no,NA,Food
s1u4m0v2txtl,2025-04-24,testing,NA,36,Butter,Bild42.png,0,35,1,7526.000000000116,1,907082,912451,"3, 5","912451, 913227",I measured all beans like chick peas and lentils etc around 15g mark and sweet things with a lot of sugar around 50g based on the training of lentils and chocolate cake.,4,yes,no,43,female,yes,NA,no,NA,Food
s1u4m0v2txtl,2025-04-24,testing,NA,37,Nutella,Bild54.png,1,55,57,3675,2,914713,916345,"5, 5","916345, 917137",I measured all beans like chick peas and lentils etc around 15g mark and sweet things with a lot of sugar around 50g based on the training of lentils and chocolate cake.,4,yes,no,43,female,yes,NA,no,NA,Food
s1u4m0v2txtl,2025-04-24,testing,NA,38,Radishes,Bild73.png,0,5,2,3952.000000000116,2,918502,920645,5,920645,I measured all beans like chick peas and lentils etc around 15g mark and sweet things with a lot of sugar around 50g based on the training of lentils and chocolate cake.,4,yes,no,43,female,yes,NA,no,NA,Food
s1u4m0v2txtl,2025-04-24,testing,NA,39,Cherry jam,Bild55.png,0,38,55,4047.000000000116,2,922561,925000,"3, 8","925000, 925267",I measured all beans like chick peas and lentils etc around 15g mark and sweet things with a lot of sugar around 50g based on the training of lentils and chocolate cake.,4,yes,no,43,female,yes,NA,no,NA,Food
s1u4m0v2txtl,2025-04-24,testing,NA,40,Raspberry jam,Bild56.png,0,38,52,3008,2,926728,928158,"3, 8","928158, 928483",I measured all beans like chick peas and lentils etc around 15g mark and sweet things with a lot of sugar around 50g based on the training of lentils and chocolate cake.,4,yes,no,43,female,yes,NA,no,NA,Food
